TimeStamp,AccX,AccY,AccZ,GravX,GravY,GravZ,MagAccuracy,MagX,MagY,MagZ,AttPitch,AttYaw,AttRoll,rotX,rotY,rotZ
1497906158.41776,0.00891268625855446,0.00453110923990607,0.000111963359813672,0.0013564785476774,-0.992476642131805,-0.12242641299963,-1.0,0.0,0.0,0.0,1.44805443159845,-0.00965024589699708,0.0110794968473661,-0.0503657013177872,0.065077006816864,-0.0284526795148849
1497906158.5986,0.00183641852345318,0.00929369311779737,0.0175886321812868,0.0056098704226315,-0.992768406867981,-0.119914069771767,-1.0,0.0,0.0,0.0,1.45046089407572,-0.0432059015575056,0.0467483360054831,-0.0199101120233536,0.0445822775363922,-0.0293648038059473
1497906158.77942,-0.010872995480895,-0.00214765430428088,0.0181777533143759,0.01078144274652,-0.992755889892578,-0.119663961231709,-1.0,0.0,0.0,0.0,1.45035669110008,-0.0893726434649757,0.0898550488985991,-0.0132799223065376,0.0222606919705868,-0.0295477006584406
1497906158.96027,-0.0264205541461706,-0.026568939909339,0.0127884559333324,0.011863668449223,-0.99152797460556,-0.12935034930706,1.0,-25.3792724609375,-11.3742294311523,40.2761840820312,1.44053500202103,-0.0845969183668898,0.0914614440723787,-0.011802826076746,0.156943187117577,0.0204663686454296
1497906159.14111,0.0114783234894276,0.0145662995055318,0.00547049939632416,0.0119134001433849,-0.989618182182312,-0.143226847052574,1.0,-25.45458984375,-11.2990798950195,39.451904296875,1.42657542619046,-0.0703855714137304,0.0829875045535355,0.0886541157960892,0.170634269714355,0.167906433343887
1497906159.32194,0.0329960845410824,-0.0274905115365982,0.0070660118944943,0.0011836044723168,-0.991552472114563,-0.129700899124146,1.0,-25.8316955566406,-10.7752151489258,39.0817260742188,1.44072355480295,0.0541813378654763,0.00912539258040967,0.232670441269875,0.185710474848747,0.200632691383362
1497906159.50278,0.00344359781593084,0.00524599244818091,0.0507468804717064,0.000889898277819157,-0.992794811725616,-0.119823418557644,1.0,-25.8331909179688,-10.3996658325195,37.9598999023438,1.45068097952004,0.0940482562449676,0.007426610814833,0.0117909600958228,0.00621548527851701,-0.00366859836503863
1497906159.68363,0.0227554626762867,-0.065751239657402,0.0423112064599991,0.0185348205268383,-0.993071377277374,-0.116041675209999,1.0,-25.9837646484375,-10.249885559082,37.361328125,1.4530115777883,-0.0753091923835129,0.158387653213329,-0.0542613416910172,-0.0792630463838577,0.0172373875975609
1497906159.86445,-0.0473096184432507,-0.0161414537578821,-0.0164444725960493,0.0232159923762083,-0.995226323604584,-0.0947920978069305,1.0,-26.5846557617188,-10.0266494750977,36.6888427734375,1.47304706664264,-0.185111183033309,0.240186933414229,0.145048677921295,-0.494410157203674,-0.0298288986086845
1497906160.0453,-0.0248591024428606,0.0412166155874729,-0.00962713081389666,0.0236078817397356,-0.995577573776245,-0.0909282863140106,1.0,-27.7090454101562,-10.1808242797852,37.138671875,1.47671460378511,-0.238803186583447,0.254023198945224,-0.0298319570720196,-0.0962285473942757,0.0144472168758512
1497906160.22614,-0.0181848276406527,0.0666277930140495,-0.00103172950912267,0.0302240122109652,-0.994392693042755,-0.101339489221573,1.0,-28.0867309570312,-9.50650787353516,35.8697509765625,1.46484765649336,-0.270743351475626,0.289846085634536,-0.156757697463036,-0.178993478417397,-0.158314362168312
1497906160.40694,-0.0398738607764244,-0.103158257901669,-0.0481154918670654,0.0209071878343821,-0.995260953903198,-0.0949661731719971,1.0,-28.6123352050781,-9.35808563232422,35.3465576171875,1.4734020820486,-0.208941423200113,0.216697235782034,0.0713226869702339,0.0706412196159363,0.163134843111038
1497906160.58779,0.0138239236548543,-0.0274478048086166,-0.0500504598021507,0.0083623556420207,-0.99731719493866,-0.0727217569947243,1.0,-28.6915283203125,-8.30814361572266,34.9055786132812,1.49752981981905,-0.0672577267918266,0.114488255139258,0.0572596564888954,0.536605834960938,0.0859236717224121
1497906160.76864,0.0205942671746016,0.118612505495548,0.0459843724966049,-0.00098672229796648,-0.996343851089478,-0.0854283422231674,1.0,-29.2207641601562,-7.25962066650391,34.1650390625,1.48525801482843,0.066576913810089,-0.0115497788066451,0.0168559979647398,0.301702976226807,0.143807858228683
1497906160.94945,0.0234619621187449,-0.10581099241972,-0.0566741228103638,0.0154479499906301,-0.997231602668762,-0.0727356672286987,1.0,-28.9984436035156,-6.58391571044922,34.3204956054688,1.49636960554736,-0.153374102123602,0.209275167725098,0.17560912668705,0.106945917010307,-0.0205855034291744
1497906161.1303,-0.0321821719408035,0.0561389401555061,0.0415772907435894,0.0167250204831362,-0.996095597743988,-0.0866822749376297,1.0,-29.2267456054688,-5.75965118408203,34.1777954101562,1.48240020987815,-0.146803160328038,0.190604003554129,-0.282138466835022,0.030721265822649,0.11169845610857
1497906161.31114,-0.0432385578751564,0.0817479118704796,-0.106404587626457,0.0122021799907088,-0.994009852409363,-0.10860700905323,1.0,-28.483642578125,-4.03145599365234,32.99169921875,1.46128725243313,-0.0624942931959943,0.111882489270751,0.145033702254295,-0.140070497989655,-0.0362910144031048
1497906161.49195,0.0265151374042034,-0.150870591402054,-0.13947306573391,0.00896154716610909,-0.995781660079956,-0.0913161113858223,1.0,-27.5860595703125,-3.42821502685547,32.7708740234375,1.47891229779054,-0.044598851552087,0.0978243836836257,0.124813757836819,0.232547700405121,-0.0476234219968319
1497906161.6728,0.0365138575434685,0.104570887982845,-0.0872165262699127,0.0113682206720114,-0.992510318756104,-0.121630519628525,1.0,-25.788818359375,-2.74623870849609,31.4249267578125,1.44832980108165,-0.0397564842598291,0.0931944572109555,-0.223357513546944,-0.572530031204224,-0.00917612574994564
1497906161.85365,-0.00322662992402911,0.00825321767479181,0.0227594040334225,0.00359284086152911,-0.992521405220032,-0.122017823159695,1.0,-24.4393920898438,-2.59102630615234,30.4498901367188,1.44842039716921,0.0198377979531403,0.029436707992181,0.170720815658569,-0.0893845409154892,-0.188041344285011
1497906162.03446,-0.0946344658732414,-0.0916595980525017,-0.178163960576057,0.0235285069793463,-0.99398797750473,-0.106931246817112,1.0,-22.7870483398438,-3.18520355224609,30.3681640625,1.46108719114348,-0.164678548228359,0.21658269843431,0.0435472838580608,0.24335090816021,-0.0752986371517181
1497906162.21531,-0.0275337044149637,0.158905759453773,-0.00733847310766578,0.0223762337118387,-0.992310285568237,-0.121735624969006,1.0,-21.7325439453125,-4.30655670166016,30.4326171875,1.44670305439503,-0.150691725126457,0.181780977878266,-0.0073144044727087,-0.0082347122952342,-0.059598658233881
1497906162.39615,0.023784963414073,-0.0843163281679153,-0.0291751753538847,0.0232273656874895,-0.994281709194183,-0.104232415556908,1.0,-21.8039245605469,-5.20702362060547,30.875,1.46380323043218,-0.19405879398559,0.219259536012394,0.0975954979658127,0.103521846234798,0.0776779279112816
1497906162.57697,0.0261221118271351,-0.0376481115818024,-0.0330399759113789,0.0153512777760625,-0.993952810764313,-0.108729436993599,1.0,-22.0235290527344,-6.55767059326172,30.6387329101562,1.4607666552204,-0.0863107694909149,0.140260789435615,-0.448961168527603,0.100585639476776,-0.10361847281456
1497906162.75782,0.0204256102442741,0.127955839037895,0.018581910058856,0.0127775138244033,-0.991435468196869,-0.129971072077751,1.0,-22.3952331542969,-7.38408660888672,30.8570556640625,1.43982456685783,-0.0431997977276322,0.0979955486643272,0.0444934815168381,-0.0267867427319288,0.108453035354614
1497906162.93866,0.0324876569211483,-0.100865937769413,-0.0690890327095985,0.0309431292116642,-0.993082404136658,-0.113268755376339,1.0,-23.3600463867188,-9.93831634521484,32.5614013671875,1.45310554262605,-0.239718154682252,0.266676441437738,0.28842505812645,-0.43235519528389,-0.0312865786254406
1497906163.11948,-0.0247755441814661,0.0669416636228561,-0.0152161419391632,0.0255384836345911,-0.988679349422455,-0.147854536771774,1.0,-24.6304931640625,-11.067756652832,32.5530395507812,1.42018363039642,-0.137081957121547,0.171039441659625,-0.0659166574478149,0.506942868232727,0.0369343794882298
1497906163.30033,-0.0285649169236422,0.0283966194838285,-0.0255823601037264,0.0216374266892672,-0.990692138671875,-0.134390786290169,1.0,-26.2732543945312,-12.873908996582,33.3643188476562,1.4342509209027,-0.144088455049627,0.159633856477273,0.20574264228344,0.00736948475241661,-0.0657873153686523
1497906163.48114,0.0298199355602264,-0.0904365628957748,-0.121670931577682,0.0178942978382111,-0.992937445640564,-0.117281705141068,1.0,-27.6943969726562,-13.8536911010742,32.982421875,1.45187727170196,-0.121980213177584,0.151407671351276,0.155633524060249,0.326462924480438,0.051214836537838
1497906163.66199,-0.0248638801276684,0.177186042070389,0.0971379429101944,0.0207440070807934,-0.988236427307129,-0.151520267128944,1.0,-28.741943359375,-14.4561233520508,30.5032958984375,1.41726014702855,-0.0963098316400636,0.136059970435673,-0.0642558187246323,0.0246317554265261,0.0494967661798
1497906163.84284,0.00201527099125087,-0.105643689632416,0.00453131832182407,0.0260303840041161,-0.989220201969147,-0.144103467464447,1.0,-28.6657409667969,-14.7552871704102,29.375732421875,1.42383225322083,-0.14206681762826,0.178709651700792,0.0211526397615671,-0.0637935847043991,-0.122675567865372
1497906164.02365,-0.071442112326622,0.0121576292440295,-0.0289747212082148,0.033905491232872,-0.989849269390106,-0.13801746070385,1.0,-27.5353698730469,-16.1015090942383,29.7381591796875,1.42819240214858,-0.210961106318367,0.240890615026515,-0.437592297792435,-0.0572399459779263,-0.178296104073524
1497906164.2045,-0.0874415710568428,0.223394885659218,0.099211685359478,0.0248805321753025,-0.987570285797119,-0.155196189880371,1.0,-26.5621948242188,-15.6479110717773,29.3660888671875,1.41296393266598,-0.139215155093948,0.158963993329918,-0.0156884547322989,-0.411844044923782,-0.153942510485649
1497906164.38533,-0.0470592118799686,-0.19884917140007,-0.0851949229836464,0.0287944413721561,-0.98817777633667,-0.150583878159523,1.0,-24.9857177734375,-16.0184555053711,31.4613037109375,1.41687710972138,-0.183938775832124,0.188937832833457,-0.162476986646652,0.493641406297684,0.0490164496004581
1497906164.56615,-0.00525044836103916,0.0310258083045483,0.00364245427772403,0.00280904211103916,-0.988743722438812,-0.149592772126198,1.0,-23.4845275878906,-16.3139114379883,32.88232421875,1.42061325768466,0.00173999514479968,0.018775719717415,-0.361669152975082,-0.140413403511047,0.0543496906757355
1497906164.747,0.00403237296268344,0.100862927734852,0.0570035800337791,0.00843405816704035,-0.987383306026459,-0.158123567700386,1.0,-21.533935546875,-16.4579391479492,34.6041259765625,1.41177866066723,-0.0379014616780613,0.0532879005243369,0.171300157904625,-0.0037887564394623,0.0719787552952766
1497906164.92785,0.033713337033987,-0.0924184396862984,-0.0267872288823128,0.028267864137888,-0.98996376991272,-0.138465449213982,1.0,-20.7821350097656,-16.9066543579102,37.299560546875,1.42900018295466,-0.200126939667359,0.201383726078867,0.0472981818020344,-0.0453603751957417,-0.16424535214901
1497906165.10866,0.000954924675170332,0.109202697873116,0.0304853059351444,0.0269686598330736,-0.986644089221954,-0.160642772912979,1.0,-20.1104431152344,-16.0793075561523,37.305908203125,1.40717645423599,-0.129641154131433,0.166328682858249,0.0304918345063925,-0.0117057673633099,-0.0275431144982576
1497906165.28951,0.0224199052900076,-0.0345526523888111,0.048573549836874,0.0328626856207848,-0.99022763967514,-0.135533392429352,1.0,-19.4375610351562,-15.5525894165039,38.5847778320312,1.43087966876623,-0.220282127156015,0.237878494620046,-0.0870090872049332,0.0668151527643204,0.173113167285919
1497906165.47035,0.0300601050257683,-0.0694298520684242,-0.080334909260273,0.00999421719461679,-0.988400936126709,-0.151537641882896,1.0,-19.5179443359375,-14.2024307250977,37.6962890625,1.41833955818784,-0.0272957481680092,0.0658566641953675,-0.137374848127365,0.0222902093082666,0.141723796725273
1497906165.65117,-0.0312518887221813,0.13839353621006,-0.00862929411232471,0.00143621664028615,-0.985805630683899,-0.16788437962532,1.0,-18.4010620117188,-12.172966003418,36.58740234375,1.40210690242555,0.030571501113587,0.00855458757535341,0.0367506295442581,0.071199856698513,-0.00913112610578537
1497906165.83202,0.0138212898746133,-0.0851899310946465,-0.0457799397408962,0.0130036612972617,-0.99023425579071,-0.138805627822876,1.0,-16.7553100585938,-11.1168746948242,35.9197387695312,1.43092731135595,-0.0854619983489818,0.0934098877920979,0.243790373206139,-0.257525742053986,-0.0717616751790047
1497906166.01286,-0.0305361114442348,-0.0129809956997633,-0.0374821498990059,0.0255007110536098,-0.983707845211029,-0.177956700325012,1.0,-14.4354553222656,-9.83274078369141,33.9033203125,1.39003911429394,-0.128345377794043,0.142328364890897,-0.31384664773941,0.264610320329666,0.0255747120827436
1497906166.19368,-0.0179189275950193,0.136135160923004,0.0806216448545456,0.0298970770090818,-0.986537992954254,-0.160776063799858,1.0,-14.1405639648438,-8.55641937255859,33.3139038085938,1.40652633861549,-0.214572246012951,0.183854794788439,0.149579674005508,0.0102834077551961,0.0481226518750191
1497906166.37451,-0.00260689342394471,-0.112651899456978,-0.178437829017639,0.0216956380754709,-0.988727509975433,-0.148146033287048,1.0,-14.5923767089844,-8.10781097412109,32.9431762695312,1.42050493976518,-0.182306617095968,0.145413971350988,0.254500329494476,-0.0247184261679649,0.0692847520112991
1497906166.55536,-0.0540220588445663,0.15568745136261,0.0421557240188122,0.0132658341899514,-0.983965039253235,-0.177867397665977,1.0,-16.0953369140625,-7.36345672607422,33.7009887695312,1.39147542344397,-0.139924238251013,0.0744448910324753,-0.0110435178503394,0.016657555475831,0.00913807190954685
1497906166.73618,-0.0230764988809824,-0.0393851026892662,0.0298254899680614,0.0207571629434824,-0.985624074935913,-0.167673394083977,1.0,-16.8462524414062,-7.14186859130859,35.2786254882812,1.40102869711705,-0.202278699519614,0.123168563483907,0.0925836190581322,-0.114984005689621,-0.0949924290180206
1497906166.91703,-0.102568186819553,-0.000469327467726544,-0.0621980503201485,0.0311265401542187,-0.987964510917664,-0.151516541838646,1.0,-18.6431579589844,-7.89943695068359,37.8240356445312,1.41549204792201,-0.355824164125275,0.202614354719664,-0.123371690511703,-0.482697427272797,-0.22630912065506
1497906167.09787,-0.0350781604647636,0.122839421033859,0.00416664639487863,0.0200177356600761,-0.984610021114349,-0.173615500330925,1.0,-20.5931396484375,-7.90703582763672,39.4009399414062,1.39512852190611,-0.333757669484283,0.114792356418364,0.00776511942967772,-0.590594887733459,-0.165427535772324
1497906167.27869,0.00760685233399272,0.000460306619061157,0.0586761943995953,0.0303417555987835,-0.986895263195038,-0.158483937382698,1.0,-22.1644897460938,-8.81366729736328,41.644775390625,1.40872547959736,-0.470972197921695,0.189161095700293,0.0592239312827587,-0.269957453012466,0.0339590981602669
1497906167.45951,0.0311142485588789,-0.0470322296023369,-0.0602251961827278,0.0259231049567461,-0.986369252204895,-0.162492081522942,1.0,-23.7361755371094,-9.64472198486328,42.7642822265625,1.40549768297006,-0.501693654545223,0.158201418391104,-0.0986003950238228,-0.329229056835175,-0.0496415756642818
1497906167.64036,-0.0259827915579081,0.107832059264183,0.0671762600541115,0.00559704937040806,-0.982664227485657,-0.185309812426567,1.0,-24.9355773925781,-9.79949188232422,43.88916015625,1.38432320840464,-0.44962941208099,0.0301945614090716,0.0269317161291838,-0.327861279249191,0.0625477731227875
1497906167.82118,-0.00653516594320536,0.00971481576561928,0.0673444047570229,0.00146924785804003,-0.983042478561401,-0.183372244238853,1.0,-26.0590209960938,-10.178825378418,44.7119750976562,1.38637457282438,-0.532704060191386,0.00801220747037782,-0.0334944427013397,-0.721672892570496,-0.168197691440582
1497906168.00203,-0.107408195734024,-0.011453852057457,-0.0154363177716732,0.0137192336842418,-0.980077505111694,-0.198140949010849,1.0,-26.431640625,-10.7805099487305,45.4572143554688,1.37085141233026,-0.706410948735119,0.0691294362073106,0.170856580138206,-0.7661292552948,-0.237450137734413
1497906168.18287,-0.0600493103265762,0.0428975746035576,0.0410282649099827,0.00798632297664881,-0.976018309593201,-0.217541933059692,1.0,-26.5027465820312,-11.7560501098633,46.049072265625,1.35135079894725,-0.784690570807851,0.0366951706608531,-0.024320475757122,-0.611935257911682,-0.18000029027462
1497906168.36369,-0.0223009195178747,-0.0261117666959763,0.0483756773173809,0.0110094156116247,-0.977092564105988,-0.212529733777046,1.0,-26.8759460449219,-12.2076950073242,46.7205810546875,1.35634158580382,-0.920770978953198,0.0517555066922279,0.0310870073735714,-0.56078439950943,-0.0748065188527107
1497906168.54453,-0.0281600169837475,-0.0533972643315792,-0.0350638702511787,0.00864402577280998,-0.980477273464203,-0.196442469954491,1.0,-27.3247680664062,-12.5098190307617,47.8434448242188,1.37287408151958,-0.999550979731715,0.0439744653004836,0.000393302791053429,-0.604986071586609,-0.238167956471443
1497906168.72538,-0.0170760732144117,0.0690899342298508,0.0707577019929886,-0.00445407861843705,-0.979810774326324,-0.199877575039864,1.0,-27.99853515625,-12.8122177124023,47.9165649414062,1.36951271331862,-1.03732495384079,-0.0222803468703844,0.0204197410494089,-0.557213485240936,-0.016919519752264
1497906168.9062,0.000303380860714242,0.00483539141714573,0.0367395989596844,-0.0112286740913987,-0.979826211929321,-0.199535623192787,1.0,-28.5964050292969,-13.3395309448242,48.3627319335938,1.36959015740769,-1.11347748693121,-0.0562147420329836,0.0820594951510429,-0.705587387084961,-0.170154571533203
1497906169.08705,-0.0308957025408745,-0.0415020361542702,-0.089341826736927,0.00993012543767691,-0.982637345790863,-0.185270607471466,1.0,-28.4446105957031,-13.7895736694336,49.4837646484375,1.38417848349352,-1.33026705636309,0.0535467200485546,0.0762216150760651,-0.72372955083847,-0.481518238782883
1497906169.26789,-0.0654304251074791,0.0405783765017986,0.0583600923418999,0.00494458619505167,-0.981008052825928,-0.193903923034668,1.0,-27.9931335449219,-14.1632461547852,50.0050659179688,1.37559203579472,-1.42361254486507,0.0254946624234258,-0.0784740746021271,-0.726559221744537,-0.0453816018998623
1497906169.44868,-0.01431043446064,0.0244262181222439,0.0874768868088722,-0.014040395617485,-0.982495069503784,-0.185758754611015,1.0,-28.0675354003906,-14.313850402832,50.6788940429688,1.38341306132216,-1.40803942301338,-0.0754405903066753,0.154214322566986,-0.244805857539177,0.0607317723333836
1497906169.62953,0.0241338927298784,-0.162078976631165,-0.0822638720273972,-0.009149762801826,-0.987625002861023,-0.156566694378853,1.0,-27.9183959960938,-14.0886001586914,51.2056884765625,1.4133123430665,-1.45237582699629,-0.0583736374937274,0.373332291841507,-0.0240619499236345,-0.136478140950203
1497906169.81037,0.0424367748200893,0.0470187403261662,-0.0256591532379389,-0.00924890767782927,-0.987692594528198,-0.156134054064751,1.0,-27.76904296875,-13.9377670288086,50.6068115234375,1.41374373282473,-1.47113470507494,-0.0591678201052421,-0.212147206068039,-0.417344838380814,-0.059709470719099
1497906169.99119,0.00698377890512347,-0.0190373882651329,0.032793190330267,-0.0194654688239098,-0.988592028617859,-0.149355083703995,1.0,-27.3214416503906,-13.3360061645508,50.2364501953125,1.41960274259465,-1.4207510321082,-0.129599643792344,0.0586762726306915,-0.123030371963978,-0.0372907035052776
1497906170.17204,-0.0230611879378557,-0.152092158794403,-0.0190159026533365,-0.00651034619659185,-0.992973148822784,-0.118160612881184,1.0,-26.4982299804688,-12.883430480957,50.8394775390625,1.45217853329915,-1.50359520751184,-0.0550417776305196,-0.0514288693666458,-0.386827081441879,-0.0988976135849953
1497906170.3529,-0.00569281401112676,0.132516771554947,0.0164460297673941,-0.018461849540472,-0.990228593349457,-0.138226419687271,1.0,-25.6006774902344,-12.2801132202148,50.4686889648438,1.43088644217302,-1.44883480855283,-0.132776561802523,-0.000372635055100545,-0.141376212239265,0.0766550078988075
1497906170.53372,-0.0176676530390978,0.0167102515697479,0.0281447358429432,-0.0250264387577772,-0.99290657043457,-0.116233728826046,1.0,-25.0009460449219,-12.2035751342773,51.59375,1.45161695411177,-1.38425365572718,-0.212073723986815,0.112968787550926,-0.0554347485303879,-0.0707166343927383
1497906170.71457,-0.00375661929138005,0.0270767081528902,0.104825600981712,-0.0272034630179405,-0.996040344238281,-0.0846382230520248,1.0,-23.9521484375,-11.9005355834961,52.8703002929688,1.48177628382551,-1.2470867621347,-0.310980296907013,-0.0241853203624487,0.397881954908371,0.112079262733459
1497906170.89541,-0.0053395526483655,0.103982999920845,0.0434961020946503,-0.0246592257171869,-0.991495192050934,-0.1277856528759,1.0,-22.6786499023438,-11.5212631225586,53.2472534179688,1.44028292897559,-1.36885649812622,-0.190630136340934,0.207948550581932,0.301017701625824,0.0805908516049385
1497906171.07623,-0.0061655892059207,-0.0707167237997055,-0.00347125995904207,-0.0306538678705692,-0.995826840400696,-0.0859604999423027,1.0,-21.2536926269531,-11.5173721313477,55.4208984375,1.4794065335118,-1.2025802783514,-0.342546056049804,0.0857484191656113,-0.247137486934662,-0.170436426997185
1497906171.25708,-0.038351234048605,-0.0224029812961817,-0.0252027828246355,-0.00362569419667125,-0.995327711105347,-0.0964860618114471,1.0,-20.0542907714844,-11.363395690918,55.8710327148438,1.47409151162383,-1.51245447022639,-0.0375597157074439,-0.22923469543457,-0.130677536129951,0.00771306687965989
1497906171.43791,-0.00792687945067883,0.113827280700207,0.0676648542284966,-0.0121994633227587,-0.9947629570961,-0.101478330790997,1.0,-19.5317077636719,-10.7614212036133,55.5755615234375,1.4684085368154,-1.42913573368574,-0.119643257878607,0.036425493657589,0.0385679230093956,-0.0164258945733309
1497906171.61872,0.116325117647648,-0.0881605595350266,-0.146270051598549,-0.016959885135293,-0.996144235134125,-0.0860755294561386,1.0,-18.5546264648438,-11.2827682495117,55.1201782226562,1.48295293459632,-1.34527256266104,-0.194542912470285,0.479340434074402,0.169565796852112,0.211150139570236
1497906171.79957,0.0348508283495903,-0.0162825454026461,-0.105834566056728,-0.020461792126298,-0.99270486831665,-0.118820585310459,1.0,-18.1046447753906,-11.280403137207,53.5447387695312,1.44993272537777,-1.36934964625239,-0.17053482653802,-0.0195497907698154,-0.449729830026627,-0.165646523237228
1497906171.98042,0.025199381634593,0.017962085083127,-0.00200374750420451,-0.0192331951111555,-0.996080994606018,-0.086329385638237,1.0,-17.7302551269531,-11.1288375854492,53.0206298828125,1.48223470035357,-1.31636171973879,-0.219208518953118,0.209299951791763,-0.184264987707138,-0.0325747467577457
1497906172.16123,-0.0411565974354744,-0.0279732998460531,-0.0638107061386108,-0.0090448185801506,-0.996105074882507,-0.0877090692520142,1.0,-17.8814392089844,-10.8288040161133,51.8983154296875,1.48250747271821,-1.46645747591236,-0.102759730801705,-0.413709789514542,-0.203187331557274,-0.133022919297218
1497906172.34206,-0.0395003668963909,0.130480661988258,-0.0392029769718647,-0.00963293295353651,-0.991289973258972,-0.131344512104988,1.0,-18.6323547363281,-10.6053848266602,49.8009643554688,1.43871535053493,-1.4835648168154,-0.0732098922478822,-0.115664273500443,-0.288006782531738,-0.0778761506080627
1497906172.52291,-0.0202806480228901,-0.13034725189209,-0.0813207551836967,-0.00443858932703733,-0.992043495178223,-0.12581729888916,1.0,-19.38232421875,-10.6080093383789,49.8016967773438,1.44456579307628,-1.52709312966643,-0.0352634278258957,-0.0212278235703707,-0.124422587454319,0.0915915295481682
1497906172.70373,0.0575524121522903,-0.00452282559126616,-0.00836671981960535,-0.00416190968826413,-0.992181301116943,-0.124735698103905,1.0,-20.5097351074219,-10.0122909545898,50.48291015625,1.44566492315317,-1.48863057501921,-0.0333534543145363,-0.341669499874115,0.253351807594299,0.0194550808519125
1497906172.88457,0.0568753927946091,0.125685334205627,0.0429477728903294,0.0014589581405744,-0.988524079322815,-0.151056289672852,1.0,-21.0320129394531,-10.6896133422852,51.45263671875,1.41915245955105,-1.54462874235502,0.00965807359807459,-0.0178353935480118,-0.174026757478714,0.0597949847579002
1497906173.06542,-0.0386686846613884,-0.167316988110542,-0.103681445121765,0.0218382384628057,-0.990916669368744,-0.132692456245422,1.0,-21.5560607910156,-10.9177932739258,54.1512451171875,1.43591017921964,-1.71487570853911,0.163115626092845,0.361794471740723,-0.0748307555913925,-0.15028703212738
1497906173.24624,-0.0117388479411602,0.0398951657116413,-0.0230739861726761,0.0233660452067852,-0.9856196641922,-0.167355701327324,1.0,-22.4515991210938,-12.0468521118164,56.017578125,1.40100264454946,-1.71262343822918,0.13872230196375,-0.15424719452858,0.1398024559021,0.049678061157465
1497906173.42708,-0.0577811971306801,0.0144674396142364,-0.0140726873651147,0.0286674275994301,-0.986253917217255,-0.162730902433395,1.0,-22.8241882324219,-12.6486892700195,57.0628051757812,1.4047983192817,-1.74299163689217,0.174375460011313,0.0505524277687073,-0.0177197959274054,-0.100290447473526
1497906173.60792,0.0082219997420907,-0.0167579464614391,0.0197529010474682,0.0203271955251694,-0.988796234130859,-0.147880956530571,1.0,-23.1247863769531,-12.4996566772461,56.9144287109375,1.42096488140093,-1.68241577142515,0.136600447426046,-0.233784317970276,0.187649413943291,0.239611491560936
1497906173.78874,-0.0352977737784386,0.0737683027982712,0.0180598292499781,0.0186046585440636,-0.981864631175995,-0.188668355345726,1.0,-24.4744567871094,-12.5781173706055,54.3651123046875,1.38005845439399,-1.65403598498605,0.0982926081106095,0.047450315207243,0.189584732055664,0.0266368761658669
1497906173.96959,-0.0125148873776197,-0.0715448930859566,-0.00583547726273537,0.0116603951901197,-0.986942052841187,-0.160653173923492,1.0,-25.1494445800781,-12.5800704956055,53.5407104492188,1.40901576013847,-1.64424779008592,0.0724541169663147,0.226127937436104,-0.237721547484398,-0.0898460745811462
1497906174.15043,-0.0384039543569088,-0.035884216427803,0.0336858965456486,0.0199408214539289,-0.987843215465546,-0.154169291257858,1.0,-26.0487976074219,-12.7330093383789,53.1653442382812,1.41470975332365,-1.71403805822825,0.128629516718853,-0.156523331999779,-0.0123344091698527,0.130698904395103
1497906174.33127,-0.0336000397801399,0.167715698480606,0.0692403241991997,0.0258485749363899,-0.989584624767303,-0.141612768173218,1.0,-26.6452026367188,-13.6352615356445,53.458251953125,1.42634195545347,-1.77454305728008,0.180542435982384,0.133575886487961,-0.0203861482441425,-0.143899247050285
1497906174.51209,0.0383687056601048,-0.143658652901649,-0.0536717921495438,0.0184397660195827,-0.991839408874512,-0.126153036952019,1.0,-27.8461303710938,-13.4147262573242,53.986328125,1.44295479761601,-1.72456933209086,0.145141958026179,-0.0459849834442139,0.20664869248867,0.194091260433197
1497906174.69294,-0.0312379356473684,0.0648215860128403,-0.0298218335956335,0.00766310608014464,-0.987490057945251,-0.157495066523552,1.0,-28.4451904296875,-13.6417922973633,53.9100341796875,1.41245410950565,-1.62344089857863,0.0486178238917414,0.118067301809788,-0.318624913692474,-0.026491753757
1497906174.87379,-0.0101400399580598,-0.016720850020647,0.0347098000347614,0.0102773690596223,-0.989870965480804,-0.141597613692284,1.0,-28.4451904296875,-13.6423873901367,55.1100463867188,1.42834493477401,-1.64563477467718,0.072454456010989,0.0558063723146915,-0.0355548448860645,-0.237030103802681
1497906175.0546,-0.00637097796425223,-0.000916760764084756,0.00376469315961003,0.0315479785203934,-0.99212521314621,-0.121211595833302,1.0,-27.5433959960938,-14.0903244018555,57.2803344726562,1.44521666539196,-1.85190974407953,0.254622789360093,-0.264405608177185,-0.237541079521179,-0.149247676134109
1497906175.23545,-0.000628782727289945,0.154995679855347,0.017705025151372,0.0165894757956266,-0.987774610519409,-0.155003607273102,1.0,-27.3916015625,-14.539665222168,57.05126953125,1.41426909894448,-1.71455658190038,0.106620521843684,-0.0670632347464561,-0.219568878412247,0.0197733081877232
1497906175.41628,0.00777979614213109,-0.0632298961281776,0.0481863580644131,0.0148795060813427,-0.990145325660706,-0.139250814914703,1.0,-26.7157287597656,-14.7626724243164,57.7987060546875,1.43029095691826,-1.71201708623922,0.106450081443359,-0.120469190180302,0.175568744540215,0.0893506780266762
1497906175.5971,0.0204790737479925,-0.0470229350030422,-0.0861912295222282,0.00840581487864256,-0.990849375724792,-0.134710252285004,1.0,-26.8660278320312,-14.6885299682617,58.4744873046875,1.43541086092824,-1.63222804791097,0.0623184181007098,-0.448185473680496,0.121226735413074,-0.00207579578272998
1497906175.77795,0.0556990690529346,0.125369057059288,0.0649593025445938,0.00730447191745043,-0.986376762390137,-0.164339795708656,1.0,-25.3618469238281,-15.733528137207,58.9890747070312,1.40554316370773,-1.62712211729852,0.0444181365778122,0.0614890046417713,0.093966007232666,0.109336450695992
1497906175.95879,0.0281620807945728,-0.0929819196462631,-0.0483195558190346,0.0131434602662921,-0.988286375999451,-0.152043595910072,1.0,-23.8621520996094,-15.6541519165039,60.7133178710938,1.41758700671263,-1.67145373487781,0.0862309676674274,0.07029639929533,0.0755401030182838,0.0409970171749592
1497906176.13961,-0.0258975401520729,-0.053313210606575,-0.0746967121958733,0.00729707675054669,-0.983719885349274,-0.179560497403145,1.0,-21.3080139160156,-16.6952743530273,60.8518676757812,1.39010600176719,-1.64220175864398,0.040616192621352,-0.137285992503166,0.0355182290077209,0.143972352147102
1497906176.32045,-0.0493975766003132,0.106483906507492,0.071940191090107,-0.000788579694926739,-0.98123973608017,-0.192789793014526,1.0,-19.8805847167969,-17.290168762207,60.6204223632812,1.37679019115623,-1.59746044107807,-0.00409033726527222,-0.0126733435317874,-0.13757361471653,-0.0670654773712158
1497906176.50129,-0.0923252031207085,-0.146627202630043,0.0469290763139725,-0.00403404654935002,-0.984720468521118,-0.174095824360847,1.0,-18.3794250488281,-17.5850143432617,60.8413696289062,1.39576137412917,-1.56739048561237,-0.0231672691052273,-0.204537361860275,0.0869188010692596,-0.0103718703612685
1497906176.68211,0.0125683974474669,0.0353517644107342,-0.11511767655611,-0.000544472073670477,-0.983517646789551,-0.180811285972595,1.0,-17.10205078125,-18.1803665161133,60.4600219726562,1.38898422841282,-1.56150176716404,-0.00301126356584542,-0.120319604873657,-0.216050460934639,-0.0270691160112619
1497906176.86296,0.0341181196272373,0.0714024305343628,0.0472443290054798,-0.00604194635525346,-0.981497645378113,-0.191378846764565,1.0,-15.2252807617188,-18.6237869262695,60.4544067382812,1.37813240878738,-1.54923914407468,-0.0315601233008283,-0.0370572954416275,-0.248929798603058,0.0912165120244026
1497906177.04381,0.0327562503516674,-0.131044238805771,0.0271135270595551,0.00728281168267131,-0.987333476543427,-0.15849170088768,1.0,-13.3472900390625,-19.3674392700195,60.8961791992188,1.41146408861708,-1.64152184239877,0.0459184429377573,0.280652970075607,0.13045808672905,-0.0585740841925144
1497906177.22462,-0.0312304850667715,0.0342148244380951,-0.00648881355300546,0.00789979659020901,-0.98671418428421,-0.162273392081261,1.0,-11.3187255859375,-20.259880065918,59.986572265625,1.40760741832196,-1.67648254948097,0.0486436155190322,-0.248445451259613,0.0664681941270828,0.00118306081276387
1497906177.40547,-0.0187012571841478,0.0738493129611015,0.0221875812858343,0.0155579457059503,-0.983608841896057,-0.179643020033836,1.0,-10.6422119140625,-20.6316452026367,58.2578125,1.38948916483086,-1.72582933356068,0.0863892320101652,0.00351305166259408,-0.200051352381706,-0.0918792113661766
1497906177.58632,0.0182524379342794,-0.0406940467655659,-0.0264636930078268,0.0136231714859605,-0.988801181316376,-0.148615658283234,1.0,-10.4133605957031,-21.605354309082,57.2742919921875,1.42099797470361,-1.75186922727277,0.0914116685092835,0.213105633854866,-0.259983837604523,0.100044578313828
1497906177.76714,0.0479578413069248,0.0431430637836456,0.000202409821213223,0.0132451616227627,-0.990332365036011,-0.138080820441246,1.0,-11.6133117675781,-21.6089096069336,56.0004272460938,1.4316329455718,-1.76824832411774,0.095630654321652,-0.0675467103719711,0.0466996990144253,0.0108935106545687
1497906177.94798,-0.0235581081360579,0.0561444722115993,0.0114726517349482,0.00701758032664657,-0.98522162437439,-0.171140626072884,1.0,-12.5097045898438,-22.510856628418,53.5936279296875,1.39866310158468,-1.74641431321485,0.0409818033739679,-0.0530213452875614,-0.246817722916603,-0.0143151273950934
1497906178.12883,0.0305248908698559,-0.0144839808344841,0.00145390466786921,0.00835450273007154,-0.98536342382431,-0.170261889696121,1.0,-13.5581970214844,-22.8891372680664,52.8414916992188,1.39949300772047,-1.82226463092276,0.0490292188890739,0.0323532670736313,-0.480472236871719,-0.146817445755005
1497906178.30965,-0.0367879420518875,-0.0519983991980553,-0.0149552868679166,0.0125112095847726,-0.986072301864624,-0.165846109390259,1.0,-14.9084777832031,-22.8187637329102,52.6184692382812,1.40370250897662,-1.91957324330944,0.0752960523684837,-0.172663316130638,-0.524612009525299,-0.158083349466324
1497906178.49048,-0.0616729557514191,0.0374288745224476,0.0131917148828506,0.0100982477888465,-0.982024192810059,-0.188484683632851,1.0,-15.3536682128906,-24.0202407836914,52.4586791992188,1.38090212303309,-1.98748745000671,0.053524785224844,-0.0854963958263397,-0.51393848657608,-0.0350508950650692
1497906178.67133,-0.0559818521142006,0.0518589653074741,0.0863670706748962,0.00733683397993445,-0.981042921543121,-0.193651616573334,1.0,-15.2771911621094,-24.3955764770508,53.6553955078125,1.37577185022774,-2.05748304123338,0.0378686565323524,0.0630742684006691,-0.492079377174377,-0.157066002488136
1497906178.85214,-0.0666696652770042,-0.0321094691753387,0.0205750279128551,0.00204869196750224,-0.982554197311401,-0.185965046286583,1.0,-14.45068359375,-24.7683029174805,54.9264526367188,1.38373089619083,-2.14072901042508,0.0110160975242051,0.0582490153610706,-0.692105770111084,-0.070774607360363
1497906179.03299,-0.0188460107892752,0.0182123929262161,-0.0715819895267487,0.00210711825639009,-0.984200537204742,-0.177044719457626,1.0,-12.2727355957031,-25.5113906860352,56.3429565429688,1.39280066853117,-2.25999049443829,0.0119010543310903,0.136037528514862,-0.603962302207947,-0.12869456410408
1497906179.21384,0.00918867439031601,0.0491450503468513,0.0435222163796425,-0.0116758570075035,-0.980831444263458,-0.194507926702499,1.0,-10.1721496582031,-25.6540908813477,56.4146118164062,1.37468359676861,-2.30868668405143,-0.0599557203176544,-0.0549691617488861,-0.792162120342255,-0.0959689170122147
1497906179.39463,0.0155820492655039,-0.00985119957476854,0.078860379755497,-0.0154752377420664,-0.978826761245728,-0.204104512929916,1.0,-7.47039794921875,-26.0941696166992,55.5081787109375,1.36464898303802,-2.41711471740961,-0.0756753738832584,-0.066436342895031,-0.798529982566833,-0.211143761873245
1497906179.57547,0.00921519380062819,-0.0524870976805687,0.0182590316981077,-0.0103290854021907,-0.982211410999298,-0.18749426305294,1.0,-4.32192993164062,-25.7080001831055,55.2083129882812,1.381896343269,-2.57862797021097,-0.0550345095756555,0.128217935562134,-0.80231386423111,-0.207675516605377
1497906179.75632,-0.0197018571197987,0.0583122484385967,0.0549185946583748,0.00496186688542366,-0.984535992145538,-0.175112083554268,1.0,-0.94879150390625,-25.2457504272461,54.308837890625,1.3947053369056,-2.81864593600714,0.0283277978266188,-0.132865116000175,-0.722803890705109,-0.147858560085297
1497906179.93714,-0.0082988366484642,0.0512915514409542,0.0539849661290646,0.000623666099272668,-0.980734884738922,-0.195342391729355,1.0,1.07528686523438,-25.0123825073242,51.7587890625,1.37418875815263,-2.91583184449567,0.00319267084170016,-0.136470451951027,-0.59638249874115,-0.119332887232304
1497906180.11798,0.0146054774522781,-0.0336605422198772,0.0559984408318996,0.00913719832897186,-0.983917593955994,-0.178389191627502,1.0,3.01983642578125,-23.6547927856445,50.193359375,1.39120951792622,-3.05124322775482,0.0511758619797172,-0.0247415248304605,-0.376944959163666,-0.108030222356319
1497906180.29883,-0.00203192979097366,0.0177555400878191,0.0515300258994102,0.0104852989315987,-0.988702833652496,-0.149521961808205,1.0,3.54364013671875,-23.3529739379883,50.1954345703125,1.42034016126889,-3.10853778881757,0.0700108636871058,0.0287498235702515,-0.380467981100082,-0.0652816295623779
1497906180.47969,0.0413158684968948,0.0906403437256813,0.0740688741207123,0.00705449469387531,-0.986651718616486,-0.162691920995712,1.0,3.76864624023438,-23.3513870239258,48.6202392578125,1.40722307759589,-3.1107698216121,0.0433339185275651,-0.0533187165856361,-0.0706448405981064,0.00468887761235237
1497906180.66051,0.0173379182815552,-0.0358335822820663,0.021300071850419,0.00881564617156982,-0.987985372543335,-0.154295682907104,1.0,3.61593627929688,-22.6769180297852,48.6261596679688,1.41562708279811,-3.13610106937903,0.0570727117167791,0.0155692445114255,-0.0985472425818443,-0.164881587028503
1497906180.84136,-0.0777292847633362,-0.0441443361341953,-0.124499320983887,0.0166483484208584,-0.988005936145782,-0.153515815734863,1.0,4.36325073242188,-21.9991989135742,48.4061279296875,1.41576007795135,3.08382050757682,0.108024956061262,-0.159201174974442,-0.353955447673798,-0.0121509563177824
1497906181.0222,-0.0146269528195262,0.110330328345299,0.043351162225008,0.00678393477573991,-0.984506368637085,-0.175217613577843,1.0,4.51144409179688,-21.5481948852539,47.434814453125,1.39453618453226,3.11642937250431,0.0386978678288248,-0.0464967638254166,-0.119865074753761,-0.0701882019639015
1497906181.20302,0.0301393065601587,-0.0403319597244263,0.0388757102191448,0.0164915528148413,-0.987698435783386,-0.155498638749123,1.0,4.58432006835938,-21.0237350463867,49.0142211914062,1.41378125088274,3.0470554086327,0.105660958375539,-0.120872147381306,0.141663119196892,-0.0579068586230278
1497906181.38384,0.0378693155944347,-0.0431787632405758,-0.0885745957493782,-0.00954900402575731,-0.987247288227081,-0.15890771150589,1.0,3.98583984375,-21.401237487793,49.8365478515625,1.41092177883031,-3.06138738502605,-0.060019333850111,-0.129851907491684,0.175084084272385,0.107506342232227
1497906181.56469,0.0788278803229332,0.135443225502968,0.00207891268655658,-0.012772579677403,-0.986792087554932,-0.161487475037575,1.0,3.53732299804688,-21.7782211303711,50.6588134765625,1.40808753977114,-3.04381590544704,-0.0789289995651501,0.223562747240067,-0.0692392438650131,0.0552690587937832
1497906181.7455,0.0583410859107971,-0.184835746884346,-0.0135687291622162,-0.00545412395149469,-0.990869224071503,-0.134716182947159,1.0,3.76446533203125,-22.3032760620117,52.3792114257812,1.43555791876331,-3.10479476757155,-0.0404639350821756,0.334111392498016,-0.212666556239128,-0.0458075627684593
1497906181.92635,-0.0186885613948107,0.00628802413120866,0.0272270794957876,-0.0133548956364393,-0.98715353012085,-0.159215599298477,1.0,4.36746215820312,-23.0511703491211,52.3721923828125,1.41033388600829,-3.06825070067296,-0.0836834215501624,-0.175652027130127,0.465139091014862,0.0429397970438004
1497906182.1072,0.0368329584598541,0.0715823471546173,0.0115975635126233,-0.00291267153806984,-0.991214334964752,-0.132233545184135,1.0,4.59274291992188,-23.1259841918945,53.5712890625,1.43814198757079,-3.12373218008852,-0.022023159971919,0.219241797924042,-0.108065009117126,-0.00168915593530983
1497906182.28801,0.0310823917388916,0.0027769124135375,-0.0237892288714647,-0.0148012638092041,-0.994506657123566,-0.103621661663055,1.0,4.22015380859375,-23.727912902832,54.8416137695312,1.4659308110948,-2.98386611986218,-0.141879747470981,0.0835070759057999,0.536107063293457,0.260086804628372
1497906182.46885,-0.00715353386476636,0.148856103420258,0.0385075695812702,-0.000979400705546141,-0.991003930568695,-0.133829221129417,1.0,3.92047119140625,-23.8037490844727,54.3912353515625,1.43656074549414,-3.11078081588519,-0.00731815624055616,0.102959357202053,0.182183057069778,0.0039684409275651
1497906182.6497,0.029513830319047,-0.100809127092361,-0.0407559499144554,0.00635958323255181,-0.992757737636566,-0.119964875280857,1.0,4.14395141601562,-23.4285659790039,55.59423828125,1.4503721487713,3.11111843001582,0.0529624671999997,-0.0172878634184599,-0.277120471000671,-0.190972998738289
1497906182.83052,-0.0301010459661484,-0.0290905218571424,-0.0106109734624624,0.0153763145208359,-0.990028738975525,-0.140023797750473,1.0,4.44454956054688,-23.5771408081055,54.8426513671875,1.42946073360899,3.03731450469735,0.109373922457686,-0.0639263689517975,-0.20846551656723,0.0534982979297638
1497906183.01137,-0.0268662460148335,0.107836857438087,0.0417564064264297,0.00971536710858345,-0.990283131599426,-0.138726010918617,1.0,3.54275512695312,-23.1306686401367,55.5973510742188,1.43127835043427,3.07446323514077,0.0699186163990388,0.180519700050354,-0.0773521214723587,0.00248087081126869
1497906183.19221,0.0498359799385071,-0.132771506905556,-0.11131601780653,-0.00360184884630144,-0.991328239440918,-0.131359755992889,1.0,2.340087890625,-22.4605178833008,56.8792724609375,1.43900602012718,-3.08527817382533,-0.0274128580373846,0.133186176419258,0.281931430101395,0.248791918158531
1497906183.37302,-0.0432869605720043,0.10943204164505,0.0504358634352684,-0.0120871840044856,-0.988551914691925,-0.150396198034286,1.0,0.83917236328125,-22.2410049438477,57.3325805664062,1.41933678429868,-3.02434290572125,-0.0801965804167376,-0.00543022667989135,-0.0587087012827396,-0.104360334575176
1497906183.55386,0.0538031198084354,-0.028893705457449,0.00326631683856249,-0.00238100183196366,-0.991339445114136,-0.131302818655968,1.0,0.90789794921875,-20.6667404174805,59.2958984375,1.43909149249345,-3.09624989656126,-0.0181316819734739,0.189270555973053,-0.533044576644897,-0.086883656680584
1497906183.73471,-0.10718672722578,-0.0550974458456039,-0.0431195497512817,0.0154966656118631,-0.991212964057922,-0.131364703178406,1.0,2.32778930664062,-19.387336730957,60.4303588867188,1.43813193398098,3.02664200549772,0.117424050966252,-0.444721072912216,-0.088395282626152,-0.030709445476532
1497906183.91553,-0.0484564006328583,0.146275818347931,0.0148201826959848,0.0270788371562958,-0.986607849597931,-0.160846799612045,1.0,3.07235717773438,-18.0349197387695,60.8161010742188,1.40695401879244,2.98325772435174,0.166787758100617,0.131604969501495,-0.121867962181568,-0.124968789517879
1497906184.09638,0.00287100556306541,-0.21908375620842,-0.0548016913235188,0.021527798846364,-0.98860365152359,-0.148994699120522,1.0,4.56515502929688,-16.2305679321289,62.5549926757812,1.41967992342895,2.99516197479465,0.143493958627058,0.159398347139359,-0.152507066726685,-0.0355201736092567
1497906184.27722,0.0249515380710363,0.0255738254636526,0.015276332385838,0.0128444824367762,-0.988311886787415,-0.15190352499485,1.0,3.7353515625,-15.033805847168,63.240966796875,1.41775399423958,3.07136605282964,0.0843561748604196,-0.554313480854034,-0.222872540354729,-0.0211853384971619
1497906184.45806,0.0472322590649128,0.0882929563522339,0.0384491831064224,0.00551737565547228,-0.987325549125671,-0.15861214697361,1.0,3.3570556640625,-14.2100601196289,63.0983276367188,1.411414315599,3.12253750488724,0.0347713079504479,0.079778365790844,-0.0453815311193466,0.0863701999187469
1497906184.63888,-0.00868724100291729,-0.0973758697509766,-0.0152917802333832,0.0158741306513548,-0.990987777709961,-0.133008390665054,1.0,1.92547607421875,-12.5645523071289,62.0637817382812,1.4364401629809,3.02584143041122,0.118784981748228,0.11205343157053,-0.00885097216814756,-0.0338647626340389
1497906184.81972,0.00790000520646572,0.0779916271567345,-0.0311113391071558,0.00876259244978428,-0.982364773750305,-0.186768904328346,1.0,0.1240234375,-12.1938400268555,58.0187377929688,1.3827150501211,3.08769708574187,0.04688238466315,-0.0944096446037292,8.79406507010572e-05,0.0715392604470253
1497906185.00057,0.0352487675845623,-0.00727776670828462,0.0527826547622681,0.0128621943295002,-0.984924972057343,-0.172503113746643,1.0,-0.847381591796875,-13.0963363647461,56.2120971679688,1.39693985140504,3.05103315189418,0.0744243805292703,-0.0250264573842287,0.12858185172081,-0.0853035748004913
1497906185.18139,0.113246314227581,-0.0314701348543167,0.000358212360879406,0.0066725118085742,-0.989541232585907,-0.144096001982689,1.0,-2.19915771484375,-12.6505508422852,55.1671752929688,1.42604090751962,3.09902595590617,0.0462729605405345,-0.502636313438416,0.203558638691902,0.460255980491638
1497906185.36222,-0.000516531348694116,0.138028100132942,0.0673671439290047,0.0056282258592546,-0.982602059841156,-0.185638010501862,1.0,-1.06820678710938,-14.145378112793,52.7533569335938,1.38398839364545,3.11440496050954,0.030308997638825,0.148809373378754,0.182212755084038,0.030336532741785
1497906185.54307,0.0285960379987955,-0.0578148253262043,0.00563248340040445,0.011793976649642,-0.98664927482605,-0.162431806325912,1.0,1.561279296875,-15.2613143920898,53.0411987304688,1.40720826055224,3.06925934417996,0.0724815971720337,-0.0106337694451213,-0.0554374530911446,-0.0929923132061958
1497906185.72388,-0.0106837237253785,-0.0170049276202917,0.00305360648781061,0.0243403390049934,-0.98272043466568,-0.183488786220551,1.0,3.73837280273438,-15.7790298461914,53.7096557617188,1.38462661814782,3.01347970317917,0.131883032526697,-0.130232885479927,0.119505055248737,0.144667983055115
1497906185.90473,-0.0575931034982204,0.107779674232006,0.0122725050896406,0.0298831425607204,-0.983725726604462,-0.177174240350723,1.0,6.0714111328125,-17.7963485717773,54.6652221679688,1.39013854379685,2.97844222956573,0.167092643164524,0.229690074920654,-0.0359334014356136,-0.0572806820273399
1497906186.08558,0.0687675401568413,-0.18629115819931,-0.0137847783043981,0.0164222829043865,-0.98833042383194,-0.151437386870384,1.0,6.37533569335938,-18.7714462280273,56.9815673828125,1.41787579806668,3.03661012410135,0.108020603072322,-0.0941231101751328,0.3420589864254,0.0511763207614422
1497906186.26639,0.0322650708258152,0.0781317055225372,-0.068788468837738,0.0152965746819973,-0.98721981048584,-0.158628523349762,1.0,5.1810302734375,-20.2016372680664,58.9955444335938,1.41074959285395,3.06824324110236,0.0961329273939975,0.0601838193833828,-0.179695874452591,0.00535046914592385
1497906186.44723,0.00826207362115383,0.011454401537776,0.0567624866962433,0.0169912222772837,-0.990794003009796,-0.134307652711868,1.0,4.65966796875,-21.1039810180664,60.0383911132812,1.43500119640009,3.0548375717184,0.125841202664653,0.332199990749359,0.0188793651759624,-0.0772627890110016
1497906186.62808,0.0154659356921911,-0.0195061881095171,0.0329233594238758,0.0323093347251415,-0.993677377700806,-0.107523575425148,1.0,3.458740234375,-20.8832473754883,60.1915283203125,1.45828616873819,2.87337848513109,0.291902634722914,-0.1195023432374,-0.00817341078072786,-0.160248309373856
1497906186.80889,0.00576610304415226,0.11027205735445,0.00858207419514656,0.0206316020339727,-0.990139603614807,-0.138556435704231,1.0,2.18798828125,-21.936882019043,58.5338134765625,1.43024999340972,3.02990394301035,0.147817849328072,0.0738290250301361,-0.0568138472735882,-0.0333196930587292
1497906186.98974,0.0171366073191166,-0.0384711362421513,0.0427924692630768,0.0212545059621334,-0.994121611118317,-0.106162220239639,1.0,1.21237182617188,-21.7901077270508,58.1610717773438,1.46231470272422,2.97889926748197,0.197595365933566,-0.00366746564395726,0.112563416361809,0.143604695796967
1497906187.17059,0.0618174336850643,0.0171985980123281,-0.0466809906065464,0.0140950428321958,-0.990877211093903,-0.134028851985931,1.0,-0.58697509765625,-21.945686340332,56.736572265625,1.43561704791348,3.07398937954571,0.104779112134724,-0.250699490308762,0.250394433736801,0.0225706920027733
1497906187.35144,0.044948510825634,0.109902910888195,0.0612799152731895,0.009342260658741,-0.989480555057526,-0.144364029169083,1.0,-0.509857177734375,-22.4698867797852,55.6820678710938,1.42562092335245,3.11644080589091,0.0646231120412636,0.131550490856171,-0.034220602363348,0.0682641118764877
1497906187.53225,0.013925920240581,-0.244810909032822,-0.0239651054143906,0.025457015261054,-0.992829442024231,-0.116797223687172,1.0,-0.734283447265625,-22.6211624145508,56.6559448242188,1.45097045687499,2.96059496138098,0.214602766176175,0.319780498743057,0.018790228292346,-0.0645053461194038
1497906187.7131,-0.0382239557802677,0.0792420357465744,0.0358718484640121,0.0188605505973101,-0.990832626819611,-0.133772239089012,1.0,-0.355987548828125,-23.4447250366211,56.423583984375,1.43528671334416,3.00943713706026,0.140066800431032,-0.257404863834381,0.256231218576431,0.175044924020767
1497906187.89395,-0.0086787436157465,0.0829524099826813,0.0130815031006932,0.0207637045532465,-0.991643786430359,-0.127324059605598,1.0,0.097015380859375,-24.1932907104492,56.716796875,1.44142979309015,2.99590692077378,0.161654616003396,0.235983625054359,0.174340963363647,-0.101909473538399
1497906188.07477,0.00561601808294654,-0.131549775600433,-0.132280901074409,0.0196067597717047,-0.992397367954254,-0.12150327116251,1.0,-0.3505859375,-24.7952194213867,57.4620971679688,1.44740841646356,3.01435067629664,0.159988991977801,0.0397335030138493,-0.0185875985771418,0.0735584050416946
1497906188.25561,-0.00488039990887046,0.122173890471458,0.0384890586137772,0.0191626269370317,-0.98930037021637,-0.144629195332527,1.0,0.322601318359375,-24.3429489135742,57.6152954101562,1.42438060582473,3.03270612026781,0.131727623008997,0.0416151694953442,-0.324362277984619,-0.00622071465477347
1497906188.43645,0.0229433756321669,-0.00497780786827207,0.069630965590477,0.0185147542506456,-0.990307211875916,-0.137654647231102,1.0,-0.5767822265625,-24.4968490600586,59.1148681640625,1.43145162611962,3.046756245013,0.133699105368322,0.122689485549927,-0.159577935934067,-0.16821600496769
1497906188.61727,-0.062233742326498,-0.0727319195866585,-0.0159448962658644,0.0257194600999355,-0.989707052707672,-0.140778124332428,1.0,-0.203277587890625,-24.1210556030273,60.1676635742188,1.42719504368564,2.98598395547541,0.180702128290852,-0.346113383769989,-0.307613372802734,-0.0898111462593079
1497906188.79812,-0.0331640914082527,0.168983668088913,0.0359730124473572,0.00809390284121037,-0.98377251625061,-0.17923778295517,1.0,-0.351470947265625,-24.5711288452148,59.2639770507812,1.39039902694784,3.08685037364975,0.0451266879691805,0.0321265682578087,-0.283751994371414,-0.124209024012089
1497906188.97897,-0.0194160528481007,-0.20466411113739,-0.124336913228035,0.0255043096840382,-0.986055493354797,-0.16445092856884,1.0,-0.952667236328125,-24.2739486694336,60.6920776367188,1.40360156993668,2.98667518715395,0.153861897343249,-0.0940037220716476,0.0868987590074539,0.0292661469429731
1497906189.15978,0.0629713833332062,0.00590293016284704,-0.0366249978542328,0.0154130151495337,-0.986875236034393,-0.160747438669205,1.0,-1.40179443359375,-24.5010452270508,61.7406616210938,1.40860143931288,3.05349888929548,0.0955911966751068,-0.312899321317673,0.0456756502389908,-0.0641255676746368
1497906189.34062,0.0271328128874302,0.103103041648865,0.030272550880909,0.00950353965163231,-0.986892104148865,-0.161101400852203,1.0,-2.67135620117188,-25.8555526733398,61.88037109375,1.4087060087943,3.08098357476032,0.058922756806993,0.152984067797661,-0.036486554890871,0.0905799120664597
1497906189.52146,-0.0143127534538507,-0.136974647641182,-0.0187243092805147,0.0179748628288507,-0.992068946361542,-0.12440313398838,2.0,-48.4541931152344,-79.3836517333984,3.4874267578125,1.44476796235366,3.00059196454251,0.143495738860545,0.0996517315506935,-0.338401108980179,-0.0670890808105469
1497906189.70228,0.0039698863402009,0.0986471995711327,-0.00101924920454621,0.0053227161988616,-0.988173544406891,-0.153247103095055,2.0,-48.5237731933594,-80.7328643798828,1.4510498046875,1.41684944899507,3.09582148787352,0.0347189419428511,-0.0334981195628643,0.106433890759945,0.219095513224602
1497906189.88313,-0.0103373834863305,0.0272117629647255,0.0249883607029915,0.00633958028629422,-0.991002678871155,-0.133691966533661,2.0,-49.1240844726562,-80.6603240966797,2.12725830078125,1.43655127004224,3.07439907729176,0.0473838093832537,0.1948262155056,0.0172397848218679,-0.0465618968009949
1497906190.06397,0.0184023715555668,-0.0454509928822517,0.00386078283190727,-0.00422695698216558,-0.992482364177704,-0.122314766049385,2.0,-48.3758850097656,-80.2080078125,2.7303466796875,1.44810093420922,-3.09366974600946,-0.0345442813686892,-0.238956615328789,0.282341659069061,0.135659351944923
1497906190.24482,0.00660427194088697,0.157720357179642,0.069898284971714,-0.00172145932447165,-0.985967457294464,-0.166928917169571,2.0,-47.8500061035156,-80.4304504394531,1.30291748046875,1.403073263236,-3.12052917942154,-0.0103121629450175,0.0903451517224312,0.212751492857933,0.0589091554284096
1497906190.42561,0.021539120003581,-0.0501930825412273,0.0397420078516006,0.00723895663395524,-0.989937543869019,-0.141319766640663,2.0,-46.8774108886719,-79.8283996582031,4.007080078125,1.42881473063172,3.09545953080618,0.051179217148264,0.0290469992905855,0.0474954806268215,-0.0360648296773434
1497906190.60646,-0.0461292341351509,-0.0503959730267525,-0.133099615573883,0.0182666871696711,-0.987018585205078,-0.159563958644867,2.0,-43.0542907714844,-79.3647155761719,3.40716552734375,1.40949161031697,3.02919432049474,0.113982577769271,-0.123452536761761,-0.150131538510323,-0.0182824227958918
1497906190.78731,-0.0323687344789505,0.128836050629616,-0.00829862989485264,0.0111895361915231,-0.986090064048767,-0.165834665298462,2.0,-42.8274841308594,-79.8138427734375,3.253173828125,1.40380960548102,3.07198811141452,0.0673719283450906,0.114419154822826,0.030389130115509,-0.00722398934885859
1497906190.96812,-0.0185586512088776,-0.197901055216789,-0.00388182909227908,0.00761809991672635,-0.991094291210175,-0.132943734526634,2.0,-40.7322998046875,-78.6070709228516,4.3863525390625,1.43723778960143,3.0903181821124,0.0572405928701963,0.111219331622124,0.0318548567593098,0.0588836446404457
1497906191.14897,0.0258940141648054,0.024034021422267,-0.0197935085743666,0.0157777387648821,-0.986894130706787,-0.160595893859863,2.0,-39.4588012695312,-78.2256317138672,0.41326904296875,1.40871857273828,3.07438652756793,0.0979307013264018,-0.264406859874725,-0.0930237621068954,-0.122757337987423
1497906191.32982,0.0488574020564556,0.0319700054824352,0.02734893001616,0.0108654964715242,-0.987414360046387,-0.157781064510345,2.0,-40.8091125488281,-78.1555023193359,0.7152099609375,1.41197473517391,3.11171813605924,0.0687558433334815,0.166007161140442,-0.068683497607708,0.019742414355278
1497906191.51064,-0.079235702753067,-0.11656392365694,-0.0273908339440823,0.0247465651482344,-0.99159038066864,-0.127028107643127,2.0,-38.7223205566406,-74.8462219238281,-3.23370361328125,1.44101619539675,2.96863253545412,0.192401891042504,0.242555245757103,0.10510116070509,0.0198856052011251
1497906191.69149,-0.00448756571859121,0.134078115224838,-0.00726607954129577,0.00836329814046621,-0.987471640110016,-0.157574623823166,2.0,-42.1743469238281,-74.3320465087891,-5.77587890625,1.41233762702068,3.09652606971912,0.0530254062803325,0.108748905360699,-0.168391585350037,-0.0277723558247089
1497906191.87234,0.0082621518522501,-0.0226764157414436,0.116424150764942,0.0210347231477499,-0.990125715732574,-0.138595178723335,2.0,-42.3333740234375,-72.0828704833984,-5.2315673828125,1.43015078256546,2.98544187777535,0.15062149000746,0.105326354503632,-0.0235074330121279,-0.0364276953041553
1497906192.05315,-0.0309630166739225,-0.0663224458694458,0.063166506588459,0.00558764953166246,-0.990043520927429,-0.140650644898415,2.0,-44.2869262695312,-71.1886291503906,-7.3970947265625,1.42956570987041,3.10759837903704,0.0397062737661542,-0.0855003818869591,0.159972175955772,0.0795935094356537
1497906192.234,0.0187736507505178,0.103858105838299,0.0183176510035992,0.00278701772913337,-0.984290242195129,-0.176536038517952,2.0,-45.2589416503906,-71.9428863525391,-5.677490234375,1.39330788178614,3.12839092329002,0.0157859345217538,0.0837874338030815,0.047498382627964,-0.0115076480433345
1497906192.41485,0.0208268854767084,-0.0800682157278061,0.0241649653762579,0.00767653156071901,-0.98748242855072,-0.157542034983635,2.0,-45.7842102050781,-71.869384765625,-6.351318359375,1.41240593056258,3.09722538342383,0.0486883686831711,-0.0773808136582375,0.0720316544175148,-0.167256936430931
1497906192.59566,-0.0733612403273582,0.0454165637493134,0.0965185910463333,0.012661780230701,-0.984152555465698,-0.176871374249458,2.0,-44.6574401855469,-72.3148803710938,-7.48126220703125,1.39252962582802,3.05461977291529,0.0714655859947288,-0.26205450296402,-0.119039535522461,0.0393537059426308
1497906192.77651,-0.00703721679747105,0.102136127650738,0.0645732060074806,0.015673691406846,-0.985681056976318,-0.167890474200249,2.0,-42.7047729492188,-72.9826354980469,-8.31390380859375,1.40136636349011,3.01407205384922,0.0930868438342912,0.297912448644638,-0.0949007198214531,0.0296706967055798
1497906192.95736,-0.0627814009785652,0.0172199048101902,0.0718317776918411,0.0166846010833979,-0.991325736045837,-0.130364492535591,2.0,-44.05712890625,-72.3873291015625,-8.38250732421875,1.43898714940398,3.01085677319138,0.127292244986505,-0.15069206058979,0.595653355121613,0.134546592831612
1497906193.13817,0.00436794059351087,-0.0036903431173414,-0.0237541776150465,0.00580967171117663,-0.987108588218689,-0.159946382045746,2.0,-43.6107788085938,-71.4853210449219,-9.2752685546875,1.41005313685025,3.10906192364581,0.0363066601542245,-0.023007033392787,0.125287085771561,-0.051583357155323
1497906193.31902,0.0212997179478407,0.0509121604263783,-0.00694470154121518,0.00621187873184681,-0.991158723831177,-0.132535889744759,2.0,-44.0601196289062,-71.6378631591797,-7.32611083984375,1.43772253206719,3.09277420387661,0.0468351348626561,0.231299936771393,0.113417722284794,-0.0651828199625015
1497906193.49985,0.00277460576035082,-0.065534882247448,0.0575699098408222,0.0227533485740423,-0.988206565380096,-0.151426717638969,2.0,-44.43603515625,-71.4149322509766,-5.8238525390625,1.41706487232098,3.01665295121566,0.149144016512477,-0.293353915214539,0.0087830638512969,0.122045926749706
1497906193.6807,-0.0167603567242622,0.0169056616723537,-0.125520035624504,0.0237641409039497,-0.985609889030457,-0.167357161641121,2.0,-43.4532775878906,-73.3620147705078,-4.7913818359375,1.40094486241619,3.01534431355879,0.141053582120505,0.379930675029755,0.0215538442134857,0.00800079479813576
1497906193.86152,0.0953652188181877,-0.108304716646671,-0.234469622373581,0.00201637041755021,-0.992357492446899,-0.123379498720169,2.0,-44.49365234375,-75.7671813964844,-1.73577880859375,1.4470850401306,-3.13402830121041,0.0163413777753039,-0.0520957373082638,-0.766296327114105,0.202859506011009
1497906194.04236,0.0179848931729794,0.0174838677048683,-0.0542318411171436,0.00395724503323436,-0.988095462322235,-0.153791233897209,2.0,-44.7093505859375,-78.0927734375,-2.0552978515625,1.41634079753743,-3.12488909436334,0.0257256026030146,0.0815718248486519,0.108222886919975,-0.0174896642565727
1497906194.22321,0.00903189461678267,0.017130883410573,0.114419363439083,0.0154737206175923,-0.992930471897125,-0.117684744298458,2.0,-44.4768371582031,-79.9681549072266,0.3284912109375,1.45181815795732,3.06712942236216,0.13073456268791,0.0651258379220963,0.287054002285004,-0.229665771126747
1497906194.40401,-0.000665378873236477,0.0267898347228765,-0.0476755499839783,0.0227143298834562,-0.989329516887665,-0.143913805484772,2.0,-44.8446350097656,-81.7690582275391,-0.43646240234375,1.42458057806655,3.04888502335551,0.156541514832144,-0.103714257478714,-0.222234904766083,-0.0284043159335852
1497906194.58486,-0.0189707688987255,0.0693662837147713,-0.0309487283229828,0.0170176438987255,-0.991241276264191,-0.130962282419205,2.0,-44.6127319335938,-83.4932708740234,-0.37640380859375,1.43834608615884,3.06684618569784,0.12921903805587,0.0734565854072571,0.215096563100815,0.0428275056183338
1497906194.76571,0.0263742264360189,-0.119338922202587,-0.0124523257836699,0.0183035079389811,-0.990356504917145,-0.137327954173088,2.0,-44.9793395996094,-85.5942535400391,-0.99383544921875,1.43180690476689,3.08500143662904,0.132502267548781,-0.226888254284859,0.131885334849358,0.0749162510037422
1497906194.94652,0.0300122275948524,0.171107515692711,0.0848931819200516,0.00671567860990763,-0.98676609992981,-0.162011101841927,2.0,-45.5748291015625,-86.7203826904297,-2.87774658203125,1.4079269957237,-3.11103375945723,0.0414282486820577,0.00414664763957262,0.064329706132412,0.0876230597496033
1497906195.12737,0.0221605990082026,-0.0656928420066833,0.0472359135746956,0.0221356656402349,-0.990001738071442,-0.13930743932724,2.0,-45.0459594726562,-87.6935424804688,-2.8865966796875,1.42926919803251,3.07135320146848,0.157580522234324,0.065876729786396,-0.0544282384216785,-0.143369287252426
1497906195.30822,-0.0540526919066906,-0.0342645198106766,-0.0905951261520386,0.0181945376098156,-0.989371359348297,-0.144268155097961,2.0,-45.2706604003906,-87.7686004638672,-4.31201171875,1.42486800887418,3.08199304190358,0.125453770326793,-0.18940007686615,-0.285576522350311,0.104317009449005
1497906195.48901,-0.0218724049627781,0.138737872242928,0.0364513508975506,0.00740707200020552,-0.986516177654266,-0.163496032357216,2.0,-46.0230102539062,-87.1709136962891,-4.98114013671875,1.40639300369631,-3.14096303970625,0.0452733369928274,-0.0922673940658569,-0.127596601843834,-0.121561512351036
1497906195.66986,0.00945928506553173,-0.0410792604088783,-0.0206561740487814,0.0177166182547808,-0.989148378372192,-0.145847737789154,2.0,-45.0495300292969,-86.7924346923828,-5.12890625,1.42334273078066,3.06468297704394,0.120881147507426,-0.0231263134628534,-0.00271366373635828,-0.0321762673556805
1497906195.8507,0.0195835437625647,0.0447413623332977,0.0498040430247784,0.00667683221399784,-0.992296874523163,-0.123702362179756,2.0,-47.0790100097656,-85.6753692626953,-3.46734619140625,1.44659483068381,-3.13793655084234,0.0539226552674529,-0.0578479580581188,0.167943149805069,0.0296217575669289
1497906196.03155,-0.013750558719039,0.110227525234222,0.101259469985962,0.0118126925081015,-0.98600572347641,-0.166292428970337,2.0,-47.2298889160156,-85.4506683349609,-3.91534423828125,1.40330281406591,3.13371465991355,0.0709165347842324,-0.137965574860573,0.0757820755243301,0.0672534927725792
1497906196.21237,0.0195656772702932,-0.0367729067802429,0.0366205796599388,0.00991430412977934,-0.987488567829132,-0.157378628849983,2.0,-47.4600219726562,-84.1765441894531,-3.7542724609375,1.41244476280589,3.1122075047404,0.0629133661723164,0.16828627884388,-0.407965362071991,-0.110188342630863
1497906196.39321,-0.0768830850720406,-0.0199754554778337,-0.0667046010494232,0.0260713156312704,-0.985761821269989,-0.166114002466202,2.0,-47.2409973144531,-82.676025390625,-3.291748046875,1.4018462343619,2.98024241621042,0.155678351914436,-0.0569671504199505,-0.150679394602776,-0.0396215878427029
1497906196.57406,-0.0362701527774334,0.0602805651724339,0.0261668171733618,0.0173034779727459,-0.981346845626831,-0.191465273499489,2.0,-46.1889038085938,-83.1969146728516,-4.12225341796875,1.37734642706954,3.01310857904418,0.0901291345022781,-0.0953832790255547,-0.182257682085037,-0.0909078493714333
1497906196.75488,-0.0265962686389685,0.0140536092221737,0.0083707282319665,0.0190584268420935,-0.983856439590454,-0.177941650152206,2.0,-46.0428161621094,-82.2214508056641,-4.0390625,1.39086768668126,2.94310345605912,0.106698170177338,0.143312454223633,-0.344326734542847,-0.00507264165207744
1497906196.93572,0.0184601899236441,-0.0224523600190878,-0.0169607289135456,0.00656422320753336,-0.989129066467285,-0.146903410553932,2.0,-45.8211059570312,-81.3963928222656,-2.6072998046875,1.42321115000411,2.94258748970947,0.0446542375825575,0.137030452489853,-0.390156179666519,-0.00108072813600302
1497906197.11657,0.00120797927957028,-0.0159271620213985,-0.0111022004857659,-0.0024286825209856,-0.983386218547821,-0.181509494781494,2.0,-45.0699462890625,-81.6927795410156,-4.560546875,1.38825857917207,2.92938063652426,-0.0133796722398082,-0.229050740599632,-0.18852736055851,-0.0408783107995987
1497906197.29739,0.0132181001827121,0.0550030954182148,0.0367420986294746,-0.00671785557642579,-0.981440484523773,-0.191649332642555,2.0,-45.2226257324219,-81.0177612304688,-5.67962646484375,1.37783404980105,2.86632602451983,-0.0350385065895099,0.00265277177095413,-0.498117089271545,-0.0915234014391899
1497906197.47824,0.0204878710210323,-0.0599125437438488,-0.0182641204446554,0.00177470233757049,-0.979500889778137,-0.201431930065155,2.0,-43.048583984375,-80.7842864990234,-7.4049072265625,1.3679687547695,2.69382014595331,0.00881020443352195,0.0311665441840887,-0.681821823120117,-0.231246873736382
1497906197.65909,-0.0569965541362762,0.0257770605385303,-0.0197770018130541,0.0128986546769738,-0.979207217693329,-0.202452003955841,2.0,-41.326904296875,-79.952392578125,-9.12451171875,1.36651601696366,2.51470609203773,0.0636261617328441,-0.213514193892479,-0.726819455623627,-0.173226609826088
1497906197.83991,-0.00959437899291515,0.0220701936632395,-0.0156743675470352,0.00031703503918834,-0.975393533706665,-0.220470651984215,2.0,-40.9546203613281,-79.2752075195312,-10.9191284179688,1.34849912383517,2.45332768430449,0.00143799109710187,-0.0279604289680719,-0.680657267570496,-0.0531630404293537
1497906198.02075,-0.0118389260023832,-0.00528540648519993,0.0425044372677803,-0.0136585105210543,-0.976037859916687,-0.217171788215637,2.0,-39.9067077636719,-78.7452545166016,-13.4656982421875,1.35144055088246,2.40045721022175,-0.0628099256150235,0.0336992517113686,-0.517677545547485,-0.0594019368290901
1497906198.2016,-0.00622617360204458,-0.0635069534182549,0.0459587164223194,-0.017363915219903,-0.981918454170227,-0.188506320118904,2.0,-40.1341247558594,-78.1460876464844,-13.3853759765625,1.38034268157723,2.35278594720594,-0.0918539637304771,-0.0129341129213572,-0.190749317407608,-0.101011030375957
1497906198.38241,0.0237025693058968,0.0818522050976753,0.0256413798779249,-0.0104579413309693,-0.986225366592407,-0.165076196193695,2.0,-39.5350036621094,-77.9188079833984,-13.759033203125,1.40462551307917,2.24514266165523,-0.0632676558819557,-0.0221185255795717,-0.423142224550247,0.0318568386137486
1497906198.56325,0.0284154396504164,0.0223268661648035,-0.0116805834695697,-0.0153081407770514,-0.982989728450775,-0.183021560311317,2.0,-39.1588134765625,-78.2161407470703,-16.4619140625,1.38608717048834,2.1776536893797,-0.0834469513461236,0.0294226612895727,-0.485278457403183,-0.0218773819506168
1497906198.7441,0.0501722618937492,-0.00988518632948399,0.0244240146130323,-0.0113081242889166,-0.983309388160706,-0.181589543819427,2.0,-39.4627380371094,-77.2419128417969,-17.0533447265625,1.38783598596016,2.07354875843988,-0.0621926853629186,0.00603241333737969,-0.434435367584229,-0.115559741854668
1497906198.92495,0.0570659711956978,-0.0096807237714529,0.00635244091972709,0.0127277309074998,-0.985955238342285,-0.166523948311806,2.0,-38.6392517089844,-76.8633117675781,-18.4758911132812,1.4030003957137,1.84798864099928,0.0762835197566847,0.0726113691926003,-0.4401815533638,-0.166896924376488
1497906199.10577,-0.045824222266674,0.0343770012259483,0.00189834309276193,0.034471683204174,-0.985838770866394,-0.164114534854889,2.0,-38.5690612792969,-75.6627655029297,-19.0657958984375,1.40230444058803,1.64124465619288,0.207036727593633,-0.0223939120769501,-0.411463052034378,-0.177555650472641
1497906199.28661,-0.0480507165193558,0.0062201851978898,0.0365883409976959,0.0350349694490433,-0.983164131641388,-0.179334312677383,2.0,-38.0482482910156,-74.6102905273438,-20.4074096679688,1.38703942599056,1.58120281410732,0.192931230635523,-0.118274472653866,-0.266928017139435,0.0237517636269331
1497906199.46743,-0.0107621364295483,0.00985085032880306,0.0758689120411873,0.0273789577186108,-0.982446074485779,-0.18452675640583,2.0,-38.1253662109375,-74.08447265625,-22.5778198242188,1.38315020399701,1.5535267691442,0.147299272962101,0.0638774856925011,-0.386994898319244,-0.0502064041793346
1497906199.64825,-0.0288002081215382,-0.0718141049146652,0.0880347788333893,0.0231391973793507,-0.985055387020111,-0.170676380395889,2.0,-38.1265563964844,-73.7844390869141,-22.6502685546875,1.39769538906058,1.50409352708162,0.134751941489971,0.0186937637627125,-0.230848848819733,-0.0321014598011971
1497906199.8291,0.0306511726230383,0.0101767741143703,-0.0160842519253492,0.0316962376236916,-0.989562153816223,-0.140577733516693,2.0,-37.1533508300781,-73.3309631347656,-22.7974243164062,1.42618609977563,1.38857574188331,0.221762950740241,0.287812978029251,-0.21431428194046,0.0952867418527603
1497906200.00995,0.00183074013330042,-0.00469643576070666,-0.00680415611714125,0.0154879856854677,-0.988864362239838,-0.148011520504951,2.0,-37.2262573242188,-73.8561706542969,-22.8767700195312,1.42142180748255,1.50300327441505,0.104260972889742,-0.0331935733556747,0.0258129369467497,-0.0572092421352863
1497906200.19076,0.0314063541591167,-0.00178943283390254,0.0380799323320389,0.0113945510238409,-0.992061257362366,-0.125238135457039,2.0,-36.1009826660156,-73.9277191162109,-21.9035034179688,1.44470706491973,1.5116401115399,0.0907332646673074,0.172708109021187,-0.242682889103889,0.0256499666720629
1497906200.37159,-0.0773343071341515,-0.149520024657249,0.000540921348147094,0.0149868931621313,-0.994782328605652,-0.100913234055042,2.0,-35.0476684570312,-74.7491912841797,-21.611572265625,1.46859848261638,1.43585682576296,0.147435020032199,-0.0286181401461363,-0.321334034204483,-0.253452271223068
1497906200.55244,-0.0206745360046625,0.101811304688454,0.0435904450714588,0.0226276610046625,-0.99486243724823,-0.0986746698617935,2.0,-33.8498229980469,-74.2198486328125,-21.9082641601562,1.46938672817629,1.32472095845969,0.225418462045921,-0.0509345345199108,-0.206631720066071,0.0778141766786575
1497906200.73326,-0.0146580776199698,0.0711960196495056,0.0690299645066261,0.0283909868448973,-0.995909154415131,-0.0857841148972511,2.0,-32.4245300292969,-74.2892456054688,-23.1102905273438,1.48031272524649,1.21752687365389,0.319611741508272,0.244273349642754,0.154056340456009,-0.0249999854713678
1497906200.9141,0.062041699886322,-0.128783360123634,-0.150726109743118,0.0272527355700731,-0.995606303215027,-0.0895845666527748,2.0,-31.1483764648438,-74.5843658447266,-23.9390869140625,1.47702078215714,1.27838266973433,0.295316881475173,0.219596028327942,0.0838475823402405,0.17175018787384
1497906201.09495,-0.00722701754420996,0.106220275163651,0.0380189828574657,0.0192814599722624,-0.993946075439453,-0.108163639903069,2.0,-30.8507995605469,-73.9824981689453,-25.584228515625,1.46070530435065,1.40970995406993,0.176408924178636,0.0443943664431572,0.0410920716822147,0.138119429349899
1497906201.2758,0.00789610017091036,-0.0426730178296566,0.0168190468102694,0.0176928881555796,-0.994604229927063,-0.102222487330437,2.0,-31.4505004882812,-74.0590362548828,-26.7092895507812,1.46686698019879,1.41427421588445,0.171384209013602,0.193013563752174,-0.25554746389389,-0.0618343129754066
1497906201.4566,-0.0267697442322969,0.00444901362061501,-0.0645971298217773,0.0342007726430893,-0.9944087266922,-0.0999078750610352,2.0,-32.2013854980469,-73.8360443115234,-27.981689453125,1.46499946729422,1.23504038714426,0.329819403360499,-0.258345752954483,-0.0784344971179962,-0.128619700670242
1497906201.63745,-0.0381732955574989,0.144550785422325,0.00602566218003631,0.0203510299324989,-0.991230487823486,-0.130567893385887,2.0,-33.1049499511719,-72.9384155273438,-29.5481567382812,1.43826429255323,1.39945972014094,0.154621381479225,0.0168437212705612,-0.307785600423813,-0.106141552329063
1497906201.8183,-0.0322523266077042,-0.134585469961166,-0.0085922684520483,0.0295972973108292,-0.993191659450531,-0.112669326364994,2.0,-32.2847900390625,-71.7358856201172,-28.8637084960938,1.45403926807617,1.31192801806002,0.256887656061323,-0.0163539443165064,0.0190748702734709,0.0877594277262688
1497906201.99911,0.00295052863657475,0.0181470867246389,0.0538188479840755,0.00473990105092525,-0.992588639259338,-0.121430538594723,2.0,-32.5863037109375,-71.3621063232422,-28.5602416992188,1.44897220190046,1.55286400401799,0.039014039446802,-0.37796089053154,-0.169929087162018,-0.064330093562603
1497906202.17996,-0.00898369308561087,0.0861711949110031,0.019410066306591,0.00812920089811087,-0.991459906101227,-0.130158349871635,2.0,-31.8425903320312,-69.7847900390625,-27.9476318359375,1.4400118401175,1.52003924134616,0.0623752183639203,0.115700572729111,-0.134331718087196,-0.0687251314520836
1497906202.36081,0.0877959355711937,-0.0317612253129482,0.0590852424502373,0.0177948866039515,-0.994804322719574,-0.1002381965518,2.0,-30.4934997558594,-69.5559692382812,-26.1470336914062,1.46881417033449,1.38845570892011,0.175695545124848,-0.017112584784627,-0.318527817726135,-0.207671001553535
1497906202.54163,-0.0146323572844267,0.0833477005362511,0.014421446248889,0.0223838221281767,-0.989246726036072,-0.144533142447472,2.0,-30.27392578125,-68.2055511474609,-25.460693359375,1.42401365881904,1.43407671692045,0.153649177756485,-0.136586219072342,-0.0687156468629837,-0.103934518992901
1497906202.72247,0.0331443436443806,0.00586240878328681,-0.0050462931394577,0.0336433760821819,-0.992785632610321,-0.115086153149605,2.0,-28.9967956542969,-68.7274322509766,-22.7664794921875,1.4506042764565,1.30041144096657,0.284407243461103,0.054007600992918,0.0179321449249983,0.223134621977806
1497906202.90332,0.090241365134716,-0.125521749258041,-0.0480094738304615,0.00269991625100374,-0.992199778556824,-0.124628461897373,2.0,-30.3404846191406,-70.3082427978516,-20.528564453125,1.44581348750487,1.60965725093644,0.0216603332802522,-0.352401405572891,0.268934905529022,-0.0808472856879234
1497906203.08417,-0.022290725260973,0.153745278716087,0.0109852720052004,0.00149299658369273,-0.989209771156311,-0.146498575806618,2.0,-31.1663513183594,-70.0862579345703,-20.30078125,1.42376091108565,1.59894804858817,0.0101908492393923,0.0510666631162167,-0.0064776916988194,0.00856851320713758
1497906203.26498,0.0436795726418495,-0.138750270009041,-0.0320241712033749,0.0216433051973581,-0.992399036884308,-0.12114355713129,2.0,-30.1139831542969,-70.6831665039062,-19.10693359375,1.44742183232186,1.41200265244986,0.176793069780213,0.020543048158288,-0.119438163936138,-0.0924117341637611
1497906203.44583,-0.0199806690216064,0.0919760912656784,-0.0141579192131758,0.0219490528106689,-0.986705720424652,-0.161028236150742,2.0,-29.8934936523438,-69.5570220947266,-19.8475341796875,1.40755504749111,1.43921279283426,0.135470751776688,-0.0112842340022326,0.0352462194859982,0.0727376788854599
1497906203.62668,-0.0130940619856119,-0.0163071528077126,-0.0208259392529726,0.0217152778059244,-0.989750564098358,-0.14114610850811,2.0,-28.7687683105469,-69.4785461425781,-18.9480590820312,1.42749964081986,1.42868339188694,0.152652735819539,0.0676698163151741,0.166961953043938,-0.0840979143977165
1497906203.80749,0.0915230736136436,-0.0555895380675793,-0.0424364171922207,0.015883544459939,-0.989408612251282,-0.144285380840302,2.0,-27.0435180664062,-69.5478363037109,-18.275390625,1.42512465865948,1.50167224553262,0.109642735551806,-0.255404412746429,0.101268425583839,0.208134487271309
1497906203.98834,0.00440365634858608,0.134131863713264,0.0569642372429371,0.0139068905264139,-0.982963025569916,-0.183276489377022,2.0,-26.371826171875,-68.7192993164062,-20.6689453125,1.38594198695382,1.52243099304842,0.0757341642327574,0.126256614923477,0.061386551707983,0.161499306559563
1497906204.16919,0.0374675281345844,-0.190521374344826,-0.0565414056181908,0.0210346691310406,-0.987274050712585,-0.15763096511364,2.0,-26.522705078125,-68.4944000244141,-21.491943359375,1.41109005214472,1.44474794811907,0.132658788308672,0.326597779989243,0.0401851162314415,-0.100580595433712
1497906204.34999,-0.0467163510620594,0.0439251512289047,-0.0487145856022835,0.0324188657104969,-0.984522700309753,-0.172232672572136,2.0,-27.9530944824219,-67.1486206054688,-23.0540771484375,1.39462934239011,1.37751775533,0.186050316595325,-0.22857378423214,0.0841220393776894,0.122816018760204
1497906204.53083,-0.0541332587599754,0.0934017524123192,0.0288710463792086,0.0290935877710581,-0.986864864826202,-0.158906444907188,2.0,-30.6536560058594,-67.0078125,-23.5751342773438,1.40853746103727,1.37986544658154,0.181080723845895,0.151383936405182,-0.0611065663397312,-0.0342262573540211
1497906204.71168,0.0100304046645761,-0.138989165425301,-0.0512072704732418,0.0199531149119139,-0.991717636585236,-0.126878052949905,2.0,-32.3009338378906,-67.6886138916016,-23.5043334960938,1.44200314885995,1.41764013181161,0.155984613302122,0.164285227656364,0.213509321212769,0.180757969617844
1497906204.8925,-0.0248605664819479,0.148739218711853,0.0011533668730408,0.0220529492944479,-0.988674521446228,-0.148446455597878,2.0,-33.4289245605469,-66.9424896240234,-23.6468505859375,1.42015159643659,1.4466546913877,0.147479642243497,0.0758204758167267,-0.114852085709572,-0.10827561467886
1497906205.07335,-0.00459320796653628,-0.0259951185435057,0.015071764588356,0.0232089310884476,-0.99086582660675,-0.132839098572731,2.0,-34.0262145996094,-67.6197052001953,-23.427001953125,1.43553290852162,1.42819343015708,0.172968738873653,0.128124698996544,-0.0849678516387939,-0.100533485412598
1497906205.25419,-0.0287416372448206,-0.0608255080878735,-0.0337783843278885,0.0361574068665504,-0.990871250629425,-0.129872128367424,2.0,-34.3271484375,-67.3954010009766,-24.0997924804688,1.43557315061066,1.31376018594685,0.271531609638133,-0.332319796085358,-0.215181723237038,0.00564499199390411
1497906205.43502,-0.0211025048047304,0.15836963057518,0.0322182588279247,0.0177455712109804,-0.98821884393692,-0.152015015482903,2.0,-35.376220703125,-67.6236419677734,-25.000732421875,1.41714517777982,1.45755861538559,0.116209680518231,-0.0155481873080134,0.076610341668129,-0.121000044047832
1497906205.61583,-0.0395142175257206,-0.22407478094101,-0.0812284201383591,0.0277191754430532,-0.989197313785553,-0.143945530056953,2.0,-35.5259094238281,-67.6991577148438,-25.001220703125,1.42367604513319,1.39552095963563,0.190238445239832,0.150608614087105,0.207313314080238,0.0549078471958637
1497906205.79668,0.0821991935372353,-0.00251332158222795,-0.0943329855799675,0.0277251191437244,-0.986164629459381,-0.163433745503426,2.0,-35.5262145996094,-67.6242065429688,-24.925537109375,1.40425885871706,1.44688694393872,0.16804155825741,-0.296068847179413,-0.134205937385559,-0.0940604582428932
1497906205.97753,0.012424006126821,0.0859455913305283,0.00891340523958206,0.0218930095434189,-0.984459400177002,-0.17424239218235,2.0,-35.8265075683594,-67.5499877929688,-25.4495849609375,1.39426853278657,1.48102380195049,0.12499186071079,0.136304020881653,-0.0588948987424374,0.0605433657765388
1497906206.15835,0.0249656252563,-0.155672997236252,-0.0214125569909811,0.0362984128296375,-0.988583624362946,-0.146235764026642,2.0,-34.1735534667969,-68.2943420410156,-25.1575927734375,1.41954691795941,1.3603005738011,0.24330120312864,0.24517323076725,0.0596085153520107,-0.0430969819426537
1497906206.33919,0.015515835955739,0.0664193406701088,-0.0136253917589784,0.0264000575989485,-0.982084035873413,-0.186585173010826,2.0,-33.1283569335938,-67.0899047851562,-26.723388671875,1.38121920956215,1.4577031022266,0.140557633078272,-0.129533901810646,0.20476508140564,0.121471844613552
1497906206.52006,-0.000615089840721339,0.0528189279139042,0.0766504779458046,0.0356950461864471,-0.985573470592499,-0.165441364049911,2.0,-31.2530822753906,-67.1581115722656,-27.1759033203125,1.40072942134263,1.37221035944012,0.212499092793967,0.330124109983444,-0.142900496721268,0.00589888915419579
1497906206.70087,0.0731199905276299,-0.112387448549271,-0.0641903802752495,0.0323487557470798,-0.986657321453094,-0.159564509987831,2.0,-29.9799194335938,-66.7030944824219,-28.2982788085938,1.40725778703323,1.38843914964961,0.200020643504817,-0.0541060492396355,0.0784415975213051,0.00565509870648384
1497906206.88172,-0.00658544432371855,0.0865289717912674,0.00667887507006526,0.0384152792394161,-0.978222072124481,-0.203975021839142,2.0,-30.3588256835938,-65.7285308837891,-30.0895385742188,1.36171539540101,1.39408002182531,0.186152780086897,-0.0585611239075661,0.0295963138341904,0.09690310806036
1497906207.06257,0.00555336708202958,-0.0419553630053997,-0.0474380329251289,0.0366677008569241,-0.984305024147034,-0.172624230384827,2.0,-31.7048645019531,-66.7085113525391,-29.5715942382812,1.39339161473294,1.34458863903423,0.209302554935618,0.207615986466408,-0.288301169872284,-0.0710272192955017
1497906207.24341,-0.108941778540611,-0.0714973285794258,-0.161921516060829,0.0511262305080891,-0.98444139957428,-0.168110832571983,2.0,-33.6566467285156,-66.2655181884766,-29.1908569335938,1.39416608553172,1.21063714867084,0.29523427814307,-0.204937011003494,-0.33378592133522,-0.014301841147244
1497906207.42421,-0.0933977663516998,0.158232986927032,0.113612502813339,0.0435473062098026,-0.984893143177032,-0.167598098516464,2.0,-35.6795043945312,-66.7978210449219,-28.743408203125,1.39675584720379,1.2181749655153,0.254210439877095,0.0188551302999258,0.0160532556474209,-0.221809774637222
1497906207.60506,-0.0374033115804195,-0.0149410739541054,0.0450724177062511,0.0536691807210445,-0.988537907600403,-0.141111239790916,2.0,-36.7298278808594,-66.727294921875,-27.166748046875,1.41924413133345,1.07444630037597,0.363437462199449,0.0169838014990091,-0.189196929335594,0.0670334324240685
1497906207.7859,0.0144181502982974,0.0300057493150234,0.0355530343949795,0.04167315736413,-0.990897476673126,-0.128006041049957,2.0,-38.677978515625,-67.1845550537109,-26.2686157226562,1.4357676635342,1.11118998699928,0.314734868864402,-0.192620411515236,0.279260873794556,-0.000674078590236604
1497906207.96672,-0.0275925826281309,0.127320811152458,0.0850894674658775,0.0313309840857983,-0.984834253787994,-0.170645490288734,2.0,-39.9547424316406,-66.7386169433594,-27.088623046875,1.39641601066814,1.2098047498283,0.181580436614542,-0.157094419002533,-0.283426642417908,0.0704608112573624
1497906208.14757,-0.0276283156126738,-0.0550143346190453,-0.0111438361927867,0.0309242140501738,-0.983025848865509,-0.180842250585556,2.0,-41.9074401855469,-66.0699310302734,-28.1309204101562,1.38628392586961,1.14252878028858,0.169362922982699,0.123146660625935,-0.60442727804184,-0.20827916264534
1497906208.32842,-0.073760449886322,-0.0534355603158474,-0.112304024398327,0.0529627203941345,-0.982880353927612,-0.176468551158905,2.0,-43.9332885742188,-65.8514556884766,-29.2520751953125,1.38549272234263,0.905608971668705,0.291571960608531,-0.0661934688687325,-0.909052133560181,-0.247770011425018
1497906208.50923,-0.0463097840547562,0.0870725139975548,0.0229182299226522,0.0354302674531937,-0.978368878364563,-0.203811168670654,2.0,-47.0100708007812,-65.4113311767578,-31.045166015625,1.36242387831729,0.893474365771683,0.172118643369124,-0.12471779435873,-0.686770498752594,-0.140895381569862
1497906208.69007,-0.0124269751831889,-0.0109747592359781,0.0486661866307259,0.0227266568690538,-0.976543545722961,-0.214117228984833,2.0,-49.7127380371094,-64.7453765869141,-31.86181640625,1.35377684763886,0.851270594961273,0.105745266200414,-0.0104063302278519,-0.696770191192627,-0.0692478492856026
1497906208.87092,-0.0382131263613701,-0.104173235595226,0.0678606703877449,0.0251516010612249,-0.980696141719818,-0.193913519382477,2.0,-51.6596984863281,-65.5020904541016,-32.0913696289062,1.37399045188494,0.728325550408155,0.128985138707646,0.00261759455315769,-0.31897360086441,-0.159552425146103
1497906209.05177,-0.00598730240017176,0.0407082587480545,-0.0378634221851826,0.0255338121205568,-0.981015861034393,-0.192239120602608,2.0,-54.4358825683594,-65.2116851806641,-32.3110961914062,1.37563230724341,0.620095270851933,0.132050259416017,-0.0372928455471992,-0.674340009689331,0.0183849930763245
1497906209.23258,0.00217223819345236,0.0230678748339415,0.019567783921957,0.00808166805654764,-0.978451192378998,-0.206320106983185,2.0,-57.5876159667969,-64.7725677490234,-32.6041870117188,1.36282197867587,0.587510664382625,0.0391505158085753,-0.0627826973795891,-0.686425745487213,-0.0563608705997467
1497906209.41342,0.0193265601992607,-0.0281627755612135,-0.0118503710255027,0.0107179954648018,-0.980336368083954,-0.1970424503088,2.0,-59.9858093261719,-65.2311096191406,-32.3057250976562,1.37215889896204,0.445075861449253,0.0543407939372655,0.0687920674681664,-0.639186143875122,-0.161442831158638
1497906209.59427,-0.0515256747603416,-0.00383909093216062,-0.0491196811199188,0.0329557284712791,-0.978674352169037,-0.202757149934769,2.0,-62.0131530761719,-64.6382598876953,-32.2236328125,1.36390556081696,0.21524974937002,0.161128855164672,-0.0318603850901127,-0.860425174236298,-0.313306480646133
1497906209.77509,-0.0371166616678238,0.00707661313936114,0.019231790676713,0.0253063589334488,-0.977947592735291,-0.207311630249023,2.0,-64.0387268066406,-64.4953002929688,-32.29541015625,1.36039696073028,0.152980812889793,0.12146822239748,-0.0893346890807152,-0.323444813489914,-0.062578946352005
1497906209.95593,-0.0208956692367792,0.0230519603937864,0.0857301950454712,0.0136172268539667,-0.980235815048218,-0.197363495826721,2.0,-65.3131103515625,-64.6499938964844,-31.845458984375,1.37164989335125,0.124345937517918,0.068886499447166,0.0475718677043915,-0.34441289305687,-0.0568759441375732
1497906210.13678,0.00876503996551037,-0.146402716636658,0.0565767362713814,0.00774496980011463,-0.985524773597717,-0.169354438781738,2.0,-67.0390014648438,-64.4315490722656,-30.7918701171875,1.40044210802055,0.0877586565597097,0.0457004665448308,0.235005795955658,-0.106153093278408,0.0132663873955607
1497906210.3176,0.0488957278430462,0.101520247757435,0.0191279239952564,0.00156508921645582,-0.988498389720917,-0.151223257184029,2.0,-67.4122009277344,-64.8830871582031,-30.3452758789062,1.41898248516262,0.094990548108513,0.0103491576967599,-0.158813625574112,0.0365549996495247,0.0999354496598244
1497906210.49844,0.0527990609407425,0.0020776551682502,-0.00752265797927976,0.00178162939846516,-0.985964357852936,-0.166946336627007,2.0,-68.5410766601562,-63.9118957519531,-30.6359252929688,1.40305496255329,0.0722179900009761,0.0106714636866194,0.0543736219406128,-0.089718259871006,0.0173591896891594
1497906210.67928,0.0325640551745892,-0.0701835826039314,-0.116220772266388,0.0133343823254108,-0.989463031291962,-0.144170463085175,2.0,-67.6404724121094,-64.0592193603516,-29.6630859375,1.42549983967854,-0.0423111575604312,0.0922279978718873,0.145305335521698,-0.047809612005949,-0.0995534658432007
1497906210.86013,-0.0757213979959488,0.00533329835161567,-0.00587245589122176,0.0349804274737835,-0.990761160850525,-0.131029397249222,2.0,-66.7402038574219,-64.1314392089844,-28.9146728515625,1.4347587859074,-0.253123071485483,0.260882065499692,-0.162331789731979,-0.47834724187851,-0.14428573846817
1497906211.04095,-0.0485403016209602,0.114005722105503,0.0454530492424965,0.0267507527023554,-0.989387214183807,-0.142819374799728,2.0,-66.6681823730469,-63.3815002441406,-28.308349609375,1.42497705335895,-0.193187821268188,0.185159351049756,0.0208646208047867,0.0824391916394234,-0.0658442825078964
1497906211.22179,0.0353576429188251,-0.0654857605695724,-0.0248794592916965,0.02048952691257,-0.992146670818329,-0.123390190303326,2.0,-65.3935241699219,-63.3024139404297,-27.5589599609375,1.44538804709549,-0.165376176329415,0.164553232604974,-0.00503397919237614,0.060054212808609,0.137638479471207
1497906211.40264,-0.00850471947342157,0.00398372253403068,-0.0388911515474319,0.00606331368908286,-0.994385957717896,-0.105640098452568,2.0,-64.5697021484375,-63.0002136230469,-26.2072143554688,1.46478390564099,-0.0382817070282832,0.0573330460012314,-0.203742384910583,0.14885339140892,-0.0678648576140404
1497906211.58346,0.0510419830679893,0.134443536400795,0.0531902760267258,0.00172290822956711,-0.992552042007446,-0.121809050440788,2.0,-64.19921875,-61.8741760253906,-25.6730346679688,1.44867174757139,-0.00102175758091826,0.0141433930541962,-0.186588600277901,-0.0269826166331768,0.16449561715126
1497906211.7643,0.0780585557222366,-0.064257524907589,0.00289082597009838,0.0127617549151182,-0.99395477771759,-0.109046220779419,2.0,-63.150146484375,-61.6460723876953,-24.547119140625,1.46078411337182,-0.113714774646521,0.116500748645235,0.0869585573673248,0.151265755295753,-0.112332373857498
1497906211.94515,-0.0156105868518353,-0.0250832028687,0.0265083536505699,0.0257729403674603,-0.992433905601501,-0.120044730603695,2.0,-62.7757568359375,-61.4950103759766,-24.0211791992188,1.44770551311758,-0.24396829010179,0.211484118789701,-0.174737155437469,-0.0703795850276947,0.144947245717049
1497906212.12597,-0.0249638743698597,0.138480082154274,0.0717563703656197,0.0235905833542347,-0.99198043346405,-0.124170310795307,2.0,-61.654052734375,-60.6660308837891,-24.165283203125,1.44406598924297,-0.220137457353076,0.187748149568829,0.0395706705749035,0.222114682197571,-0.0789548605680466
1497906212.30681,0.0389008261263371,-0.155580922961235,-0.0788270980119705,0.0205169003456831,-0.993588984012604,-0.111175343394279,2.0,-60.5287780761719,-60.7367401123047,-24.8419799804688,1.45750146519274,-0.194241693139755,0.182492183235974,0.0576373934745789,0.129019275307655,0.181687518954277
1497906212.48765,-0.0255295895040035,0.0320825427770615,-0.0683521777391434,0.0135666988790035,-0.991143226623535,-0.132102534174919,2.0,-59.85498046875,-60.4335632324219,-26.4900512695312,1.43760553677202,-0.107467025329364,0.102339469606235,-0.0189934223890305,-0.670601844787598,-0.0335234589874744
1497906212.66849,0.0175830777734518,0.054303091019392,0.0354317203164101,-0.000966256717219949,-0.993954598903656,-0.109787799417973,2.0,-60.9017028808594,-61.2616271972656,-27.6961059570312,1.46078249238055,-0.00556253197155425,-0.0088009029288741,0.333787947893143,0.0585059784352779,-0.0231480933725834
1497906212.84931,0.0866053774952888,0.00825943890959024,0.09405317902565,0.0212132260203362,-0.996311783790588,-0.0831431448459625,2.0,-61.3453369140625,-62.8381042480469,-27.8590698242188,1.48488402021778,-0.259722926164491,0.24981139000012,-0.15372009575367,-0.132610365748405,-0.211734980344772
1497906213.03016,0.0287306699901819,0.113453276455402,-0.0386427268385887,0.0181901063770056,-0.992100119590759,-0.124122776091099,2.0,-61.7194519042969,-63.0636291503906,-29.4356079101562,1.4450163684132,-0.134854357969234,0.145513486877579,0.00780677422881126,-0.267646849155426,-0.0758703798055649
1497906213.211,-0.0409427732229233,-0.00698438193649054,0.00103611592203379,0.0218235105276108,-0.994541525840759,-0.102034039795399,2.0,-61.7869567871094,-64.9390716552734,-29.00146484375,1.4662642618455,-0.199400750070035,0.210709808545091,-0.101678915321827,-0.178000405430794,0.0780654922127724
1497906213.39181,0.0576407052576542,-0.044350404292345,-0.0607751570641994,0.022956220433116,-0.994117021560669,-0.10585081577301,2.0,-62.1574401855469,-66.0655059814453,-28.710693359375,1.46227191380553,-0.193864387023286,0.213566029650036,-0.226946249604225,-0.0081107784062624,-0.123686768114567
1497906213.57265,0.0183898452669382,0.118032366037369,-0.00409142160788178,0.0269134994596243,-0.992147326469421,-0.122144542634487,2.0,-62.3053588867188,-66.5909576416016,-28.864990234375,1.44539342782827,-0.198986988387026,0.216875928103862,0.06247428804636,-0.0526660978794098,0.0511928424239159
1497906213.7535,0.0489544272422791,-0.127782016992569,-0.0184370223432779,0.0369372963905334,-0.994501948356628,-0.0979875400662422,2.0,-63.4240112304688,-68.1703796386719,-27.8272705078125,1.46588569170935,-0.34952535107307,0.360487135140416,0.261130183935165,0.0967918038368225,-0.139498725533485
1497906213.93435,-0.0414730049669743,-0.0219548270106316,0.0126701798290014,0.0527797676622868,-0.991472899913788,-0.119146011769772,2.0,-64.1725158691406,-68.5479736328125,-27.90478515625,1.44011167122366,-0.421526930125,0.417004052148467,-0.266214311122894,0.0623690485954285,0.152720853686333
1497906214.11516,-0.0164389088749886,0.117665201425552,0.0451559200882912,0.0406851246953011,-0.991978526115417,-0.119679845869541,2.0,-66.4203796386719,-69.0808410644531,-27.9070434570312,1.4440509835622,-0.333085708225152,0.32769340269986,0.12393843382597,0.131407871842384,-0.0296517312526703
1497906214.29601,-0.0093272291123867,-0.140382051467896,-0.113407850265503,0.0351451002061367,-0.993056058883667,-0.112269639968872,2.0,-68.0652465820312,-70.3614349365234,-28.21630859375,1.45288122732164,-0.283686665857757,0.303378476799605,0.0512459725141525,0.120893597602844,0.0416072383522987
1497906214.47686,0.00420169625431299,0.0322316251695156,-0.0294626224786043,0.0344793349504471,-0.989568054676056,-0.139879420399666,2.0,-69.2643737792969,-70.5902557373047,-28.967041015625,1.42622704200745,-0.202909180487878,0.241675490830785,-0.192911982536316,-0.0402126014232635,-0.0984366536140442
1497906214.65767,0.00124670448713005,0.0606693550944328,0.0462738685309887,0.0240676272660494,-0.992111623287201,-0.123025581240654,2.0,-70.7616271972656,-71.2705688476562,-28.8212890625,1.44510799778159,-0.15829061576832,0.193191166802464,0.251799941062927,-0.143424451351166,0.0284348279237747
1497906214.83852,0.0226679481565952,-0.0667512267827988,-0.0444315858185291,0.0416173301637173,-0.991491556167603,-0.123338796198368,2.0,-70.6803283691406,-72.8458709716797,-27.6348266601562,1.44025498991575,-0.324571502417262,0.325426602876395,-0.259738713502884,-0.166508987545967,-0.153689011931419
1497906215.01937,0.00258879316970706,0.114409141242504,-0.0212013404816389,0.0370382815599442,-0.987288177013397,-0.154564648866653,2.0,-70.1526184082031,-73.518798828125,-28.0910034179688,1.41117896251401,-0.246458127296043,0.23519482636805,-0.0642622262239456,-0.227899149060249,-0.0289858914911747
1497906215.20018,0.0054442910477519,0.0167196523398161,0.0393750853836536,0.0406982861459255,-0.990032017230988,-0.134834066033363,2.0,-69.2457580566406,-75.2405853271484,-28.1815795898438,1.42948409713423,-0.312609067211954,0.293143813496276,0.0990587472915649,0.225775107741356,0.00181593582965434
1497906215.381,0.0718506127595901,-0.0519007369875908,0.00788077060133219,0.0299560260027647,-0.991449475288391,-0.127006143331528,2.0,-69.0171508789062,-76.1390991210938,-29.5394897460938,1.439932046946,-0.220395361868905,0.231629469380461,0.0667108818888664,0.297448724508286,0.0629603490233421
1497906215.56185,0.00304448534734547,0.0936298668384552,0.0725608095526695,0.0353924036026001,-0.985872268676758,-0.163716807961464,2.0,-69.4674682617188,-76.0643768310547,-32.163330078125,1.40250434127291,-0.194209575885677,0.212904353018976,0.0691880956292152,0.107509709894657,0.106528677046299
1497906215.74269,0.0213239025324583,-0.0483821928501129,0.0323020257055759,0.031517282128334,-0.98887974023819,-0.145339131355286,2.0,-70.9641418457031,-76.8943786621094,-32.6188354492188,1.42152541336925,-0.209568251513023,0.213546981027761,0.042262177914381,-0.129981949925423,0.00583085184916854
1497906215.92351,-0.0752657726407051,0.0122771449387074,-0.0408736877143383,0.0356234386563301,-0.988732814788818,-0.145390346646309,2.0,-73.0632019042969,-77.1266174316406,-32.84375,1.42054062280397,-0.262147373157456,0.24028546358681,-0.286386758089066,-0.319342643022537,-6.3284081988968e-05
1497906216.10436,-0.0283092502504587,0.0888727158308029,-0.000140441159601323,0.0207714084535837,-0.985662281513214,-0.167446836829185,2.0,-74.640869140625,-76.4563598632812,-34.4114990234375,1.40125502602074,-0.12414419363124,0.123417314416022,0.0447547025978565,-0.19536454975605,-0.160768672823906
1497906216.2852,1.4981808817538e-05,-0.0728863477706909,-0.0252299401909113,0.0297396574169397,-0.989018559455872,-0.144768223166466,2.0,-75.3890686035156,-76.9091949462891,-33.964599609375,1.42246158846199,-0.194880433378154,0.20261068794907,0.124931134283543,0.0436687134206295,0.118055604398251
1497906216.46604,0.0327598974108696,0.028933048248291,0.00215965323150158,0.0301520917564631,-0.988756656646729,-0.146462023258209,2.0,-76.8140563964844,-76.9141082763672,-34.1131591796875,1.42069985964851,-0.196432752356356,0.203033069625131,-0.0940101891756058,0.039574395865202,0.0387799181044102
1497906216.64689,0.0372361317276955,0.101480767130852,0.0580037608742714,0.029795728623867,-0.9866583943367,-0.160054534673691,2.0,-78.4667358398438,-76.24462890625,-34.630859375,1.40726411132104,-0.17946697748638,0.184052991891724,-0.0960380658507347,-0.0246844217181206,0.0767265781760216
1497906216.82773,0.0124417133629322,-0.105683729052544,-0.045678585767746,0.0322665385901928,-0.988417208194733,-0.148291140794754,2.0,-79.9670104980469,-76.1753234863281,-33.728759765625,1.41844668916336,-0.22602894708262,0.214249561932821,0.167412683367729,-0.121591217815876,-0.0482992902398109
1497906217.00858,-0.018042266368866,-0.0219017509371042,0.00120755808893591,0.0407320857048035,-0.988443732261658,-0.146013468503952,2.0,-81.08837890625,-77.0798950195312,-32.4603271484375,1.41862130685707,-0.296085496137424,0.272045128666094,-0.0683466717600822,0.0308005046099424,0.0738981738686562
1497906217.1894,-0.024118460714817,0.0954315960407257,0.0759240388870239,0.035623587667942,-0.986956834793091,-0.156993985176086,2.0,-82.5925903320312,-76.0356292724609,-31.5499267578125,1.40910779426029,-0.238711163245548,0.223132153578043,-0.00751939741894603,0.117384925484657,-0.0470188185572624
1497906217.37023,-0.0105576664209366,-0.0929863378405571,-0.0173137597739697,0.0298447757959366,-0.986435651779175,-0.161412432789803,2.0,-83.6434326171875,-75.8148956298828,-30.3469848632812,1.40590172374487,-0.198557939380947,0.182832773812475,0.0273172929883003,-0.196462765336037,0.15257702767849
1497906217.55107,0.03305584192276,0.0564343705773354,0.00382208148948848,0.0201515536755323,-0.985908269882202,-0.16606879234314,2.0,-85.1494140625,-74.3208160400391,-29.057861328125,1.40271912274994,-0.126014301374771,0.120754248910444,-0.236707225441933,0.241965383291245,0.0919783711433411
1497906217.73189,0.010077097453177,0.0886320695281029,0.0479499511420727,0.0238737091422081,-0.981973111629486,-0.187506839632988,2.0,-85.3780212402344,-73.4218444824219,-28.5999755859375,1.38063170992511,-0.124903881650327,0.126640421158238,0.0853156447410583,0.0756699815392494,0.104149982333183
1497906217.91274,0.0353342480957508,-0.0434700772166252,-0.0318132638931274,0.0314534716308117,-0.986772835254669,-0.15902841091156,2.0,-85.902099609375,-73.6497344970703,-26.5014038085938,1.40796868972998,-0.207012341369792,0.195265077336411,0.0936350002884865,-0.125169083476067,-0.0293550435453653
1497906218.09358,-0.064059354364872,0.0355081297457218,-0.0457512773573399,0.0418272987008095,-0.985611915588379,-0.163767158985138,2.0,-86.05419921875,-73.1259307861328,-25.1467895507812,1.40095671384543,-0.285732492996476,0.250061212525293,-0.114560894668102,-0.23351489007473,-0.0111287832260132
1497906218.2744,-0.0233319010585546,0.0472616367042065,-0.0256208498030901,0.0297863688319921,-0.979817807674408,-0.197661012411118,2.0,-86.2096252441406,-71.7765197753906,-25.0601196289062,1.36954788788132,-0.18770799010619,0.149568809376076,-0.0189651660621166,-0.00569863244891167,-0.0905125513672829
1497906218.45522,-0.00597571302205324,0.00467831641435623,0.010349647141993,0.0324344523251057,-0.982919275760651,-0.181156530976295,2.0,-86.2864074707031,-71.3270874023438,-24.4562377929688,1.38570410824299,-0.194289280203858,0.177163914541347,0.105881839990616,0.388121277093887,0.0560725070536137
1497906218.63607,0.0334682688117027,-0.0368746556341648,-0.0872840508818626,0.0218753572553396,-0.984670758247375,-0.17304615676403,2.0,-86.5906066894531,-70.2790222167969,-22.7220458984375,1.39547622645701,-0.141428831474137,0.125746437305966,0.0440526679158211,0.333885461091995,0.0322021618485451
1497906218.81692,0.00618154089897871,0.0460233949124813,0.0422834381461143,0.0142347188666463,-0.982378959655762,-0.186356917023659,2.0,-86.2959899902344,-68.9281158447266,-22.48583984375,1.38279095611711,-0.0782919397718839,0.0762361323803,-0.125010251998901,-0.00612313346937299,0.0254874732345343
1497906218.99773,-0.00640298239886761,0.00851012580096722,0.0340168960392475,0.00805093161761761,-0.981929302215576,-0.189076706767082,2.0,-86.3736877441406,-68.2539825439453,-21.280029296875,1.3804000366647,-0.0761774323418478,0.042554534260746,0.0210675466805696,-0.199451133608818,-0.0746777877211571
1497906219.17858,0.0516942292451859,-0.0439292043447495,0.037679560482502,0.0114313801750541,-0.982880473136902,-0.183889284729958,2.0,-85.6242980957031,-68.1026306152344,-18.7294921875,1.38549343548961,-0.153742958373495,0.0620845830390064,0.0108726602047682,-0.034747626632452,0.0584826022386551
1497906219.35943,-0.0394876040518284,0.0119411442428827,-0.0373448729515076,0.00269866455346346,-0.983224093914032,-0.182381689548492,2.0,-84.802001953125,-67.4251708984375,-17.8995361328125,1.38736779431623,-0.110225534344694,0.0147957157089601,0.105008505284786,0.0248947311192751,-0.125416934490204
1497906219.54024,-0.0240463521331549,0.0650332197546959,0.0207770857959986,-0.0032821383792907,-0.986908197402954,-0.161249503493309,2.0,-83.6784973144531,-67.0466613769531,-17.0724487304688,1.40880589570537,-0.0606516731183608,-0.0203515992829042,-0.0496286228299141,0.186168566346169,0.0865707322955132
